timestamp,x,y,z,vx,vy,vz,ax,ay,az,roll,pitch,yaw,roll_rate,pitch_rate,yaw_rate
1733312797104791,0.020762803,0.040359076,-10.466968,0.03530137,0.0012045415,-0.14895335,0.0,0.0,0.0,0.1817786650544686,0.2026273355920316,90.7238598750812,0.0,0.0,0.0
1733312797112791,0.020974956,0.04056481,-10.467767,0.03466615,0.0013883427,-0.14782214,-0.07940223,0.022975145,0.14140084,0.18173547270075108,0.20593182079207892,90.72540381606312,-0.005399044214691646,0.41306065000591125,0.19299262273978227
1733312797120791,0.021183953,0.040768117,-10.468568,0.034042206,0.0015800841,-0.14671826,-0.07799314,0.023967672,0.13798475,0.18136071129167491,0.20904514014809852,90.72694767117501,-0.0468451761345227,0.389164919502451,0.1929818889863502
1733312797136791,0.021592177,0.041167386,-10.47017,0.032759026,0.0018986058,-0.1448194,-0.08019874,0.019907609,0.11867936,0.17958196430753318,0.21515750764840036,90.73029508464637,-0.11117168650885803,0.38202296876886527,0.20921334196005759
1733312797144791,0.021791123,0.04136333,-10.470974,0.03213783,0.0020440952,-0.1439631,-0.07764948,0.018186169,0.107036896,0.178573863452294,0.21817280426244623,90.73181845227217,-0.12601260690489596,0.37691207675573263,0.1904209532238993
1733312797152791,0.021986699,0.04155675,-10.471779,0.031521577,0.0021627133,-0.14314772,-0.07703155,0.014827265,0.10192207,0.1772792670734769,0.22100684665416048,90.73349211698334,-0.1618245473521376,0.3542552989642831,0.20920808889790055
1733312797168791,0.022125566,0.04113714,-10.473327,0.030289711,0.0019356589,-0.14151447,-0.07699162,-0.014190903,0.102078535,0.17467054271421878,0.22648067136278632,90.73683953587118,-0.163045272453632,0.3421140442891146,0.20921368049034647
1733312797176791,0.022071144,0.04053417,-10.474073,0.02966757,0.0015799607,-0.1408999,-0.07776776,-0.044462267,0.076821074,0.17322478337593872,0.23013639905709687,90.73755691566495,-0.18071991728500889,0.45696596178881876,0.08967247422001116
1733312797184791,0.02201961,0.03994378,-10.474825,0.029042328,0.0012216652,-0.14032325,-0.07815519,-0.044786938,0.07208064,0.1717765153303342,0.2338677940078254,90.73918969270088,-0.1810335057005666,0.46642436884106697,0.20409712949034703
1733312797192791,0.021970795,0.03936545,-10.475581,0.028434979,0.000858287,-0.13965404,-0.07591862,-0.045422275,0.083651386,0.17041734620131144,0.2374148533003903,90.74061075068921,-0.16989614112784313,0.44338241157061303,0.17763224854238657
1733312797208791,0.021880478,0.038243026,-10.477106,0.027203321,0.0001231861,-0.13848306,-0.07697858,-0.045943804,0.07318612,0.16686246062502802,0.24250717751457046,90.7434661743707,-0.2221803485177139,0.31827026338625986,0.17846398009310213
1733312797216791,0.021838548,0.03769796,-10.477876,0.026595248,-0.00024546107,-0.13795641,-0.07600919,-0.046080895,0.06583147,0.16502011149917672,0.24402210578262987,90.74496919062382,-0.23029364073141154,0.18936603350742554,0.1878770316399322
1733312797224791,0.021798577,0.03716318,-10.478649,0.025989158,-0.0005861186,-0.13736057,-0.07576123,-0.04258219,0.07447973,0.16305402459559223,0.24471262817988043,90.74610992378143,-0.24576086294806285,0.08631529965632073,0.14259164470186367
1733312797232791,0.021760507,0.03663829,-10.479427,0.025401872,-0.0009367988,-0.13676193,-0.0734108,-0.04383502,0.074829906,0.16085811490167648,0.24475630443640858,90.74726431623196,-0.2744887117394682,0.005459532066017256,0.14429905631667497
1733312797248791,0.021688282,0.03561642,-10.480993,0.024223687,-0.0015934396,-0.13561471,-0.07363653,-0.041040048,0.07170159,0.15557363861971224,0.24313118493204153,90.74951154461915,-0.3302797676227643,-0.10156996902294133,0.14045177419929122
1733312797256791,0.021653872,0.035118632,-10.481782,0.023646884,-0.0019324787,-0.1352483,-0.07210043,-0.04237989,0.045800578,0.15259245274708108,0.24145219736385354,90.75057706167485,-0.3726482340788966,-0.20987344602349894,0.13318963196103112
1733312797264791,0.02162086,0.034629293,-10.482575,0.023077488,-0.0022475745,-0.13485996,-0.071174465,-0.03938697,0.04854239,0.14942410364357953,0.23931739761392173,90.75199785525379,-0.3960436379376935,-0.26684996874147543,0.17759919736790733
1733312797272791,0.021589255,0.034148112,-10.483374,0.02253568,-0.002563082,-0.1343708,-0.06772601,-0.039438423,0.06114505,0.14606574114561216,0.23644917368895024,90.75316563714352,-0.41979531224591987,-0.358527990621434,0.14597273621690238
1733312797288791,0.021529686,0.033209015,-10.484979,0.021422291,-0.0031654662,-0.13328783,-0.06958679,-0.03764902,0.06768573,0.13860747093862838,0.2290690667076181,90.75489353949152,-0.46614188793648653,-0.4612566863332609,0.10799389674937994
1733312797296791,0.022033839,0.032847483,-10.485113,0.021251367,-0.0034241846,-0.13277371,-0.02136547,-0.032339796,0.06426498,0.1346742644451238,0.22443538739755223,90.75584960029607,-0.4916508116880744,-0.5792099137582327,0.11950760057012305
1733312797304791,0.022529233,0.032490563,-10.48527,0.021057254,-0.0036624537,-0.13225356,-0.02426421,-0.029783636,0.065019354,0.1301944692703717,0.21967800484842204,90.75386841762766,-0.5599743968440094,-0.5946728186412727,-0.24764783355141848
1733312797312791,0.023016071,0.03213814,-10.485445,0.020879142,-0.0038966814,-0.13169035,-0.022263963,-0.029278452,0.070400536,0.12551632607813998,0.21468373998292797,90.75194178378071,-0.5847678990289683,-0.6242831081867566,-0.2408292308685826
1733312797328791,0.023949523,0.0314491,-10.485856,0.020474352,-0.00432265,-0.13070485,-0.025299376,-0.026623033,0.061593946,0.11654596405656051,0.20361359709341256,90.74791791386197,-0.5606476263487165,-0.691883930594713,-0.2514918699214963
1733312797336791,0.0244043,0.03111101,-10.48609,0.020288635,-0.0045248573,-0.13031666,-0.02321461,-0.02527592,0.048523765,0.11244578445812753,0.19758389048037017,90.7456771210297,-0.5125224498041226,-0.7537133266303015,-0.28009910403270455
1733312797344791,0.024851447,0.030777244,-10.486343,0.020087613,-0.004699722,-0.12995875,-0.02512778,-0.021858081,0.04473887,0.10832270933148344,0.19131315373773353,90.74349101144637,-0.515384390830511,-0.7838420928295787,-0.2732636979181186
1733312797352791,0.02529109,0.030447865,-10.486614,0.019889072,-0.004863687,-0.12959427,-0.02481765,-0.020495614,0.045560297,0.10434606684353978,0.18513253289719775,90.74142796966184,-0.49708031099295674,-0.7725776050669734,-0.25788022306423125
1733312797368791,0.026148692,0.029802138,-10.487211,0.019495787,-0.005176593,-0.12895131,-0.02458028,-0.019556638,0.040184703,0.09846940624954727,0.17178799938555456,90.73680971392524,-0.3672912871245325,-0.8340333444777,-0.2886409835382277
1733312797376791,0.026566954,0.029485691,-10.487535,0.019270482,-0.0053185564,-0.12882616,-0.028163193,-0.01774542,0.015644357,0.09629837977267783,0.16467285926673286,90.73454852799867,-0.27137830960867854,-0.8893925148527121,-0.28264824082148143
1733312797384791,0.026985113,0.029174365,-10.487879,0.01907239,-0.005437306,-0.12871557,-0.024761537,-0.01484371,0.013822689,0.09425359357460318,0.1576255569282219,90.73234189324924,-0.2555982747593308,-0.8809127923138699,-0.27582934367812234
1733312797392791,0.027396532,0.028867435,-10.488239,0.018854255,-0.0055394676,-0.12853356,-0.027266795,-0.012770178,0.022752209,0.09258539603424928,0.15058676805981008,90.72993724370924,-0.20852469254423822,-0.8798486085514775,-0.3005811924988369
1733312797408791,0.028199451,0.02826662,-10.489008,0.018423952,-0.005728236,-0.12815394,-0.026893917,-0.011798023,0.023726372,0.09137075374205297,0.13649755099559932,90.7252167345611,-0.07591514326226896,-0.8805760665131711,-0.2950318217596547
1733312797416791,0.028591292,0.027972693,-10.489416,0.01820252,-0.005819758,-0.12809338,-0.027678905,-0.011440249,0.0075697894,0.09126040280741408,0.12952875156715465,90.7227847707413,-0.013793866829862356,-0.8710999285555844,-0.30399547747364913
1733312797424791,0.02913882,0.027743831,-10.489161,0.018069906,-0.0058776424,-0.127876,-0.016576843,-0.007235561,0.027172266,0.0913585651202901,0.12246575859399314,90.72035959510477,0.012270289109503304,-0.8828741216451904,-0.3031469545669545
1733312797432791,0.029677019,0.027517822,-10.488937,0.017922917,-0.0059130215,-0.12766027,-0.018373597,-0.0044223852,0.026965512,0.09134020842680864,0.11544905811565354,90.71740179279801,-0.0022945866851832985,-0.8770875597924503,-0.3697252883437914
1733312797448791,0.030726101,0.027074749,-10.4885845,0.017602375,-0.005963751,-0.12722467,-0.02003391,-0.0031706002,0.027225351,0.09178984236204701,0.10194057378453959,90.71150650987224,0.02810212095239803,-0.8442802706946209,-0.3684551828615897
1733312797456791,0.031245586,0.026861235,-10.488455,0.017467504,-0.005983541,-0.12719986,-0.016858801,-0.002473709,0.003101304,0.09219928382595662,0.09569699786151274,90.70861005098877,0.051180182988701306,-0.7804469903783565,-0.3620573604338981
1733312797464791,0.031756368,0.026650649,-10.488356,0.017315708,-0.005977374,-0.12722294,-0.018974533,0.000770844,-0.002885237,0.09296816933756227,0.0896475167442078,90.70531076915066,0.0961106889507076,-0.7561851396631172,-0.4124102297626978
1733312797472791,0.032258566,0.026443157,-10.488287,0.017171549,-0.005959024,-0.1272254,-0.018019928,0.002293731,-0.00030733642,0.09447139983337019,0.08342311289459328,90.70212750867026,0.18790381197598943,-0.7780504812018159,-0.3979075600495429
1733312797488791,0.03323767,0.026037883,-10.488235,0.01685592,-0.0058615482,-0.12730268,-0.019726807,0.006092246,-0.004829839,0.09824902237031459,0.07200335291424516,90.69588409210631,0.23610140855902503,-0.7137349987717572,-0.3902135352471862
1733312797496791,0.033714667,0.02584018,-10.488254,0.016663665,-0.005795047,-0.12749301,-0.024031846,0.008312636,-0.023791565,0.09994490312721369,0.0666948446256412,90.69289897874786,0.211985094612387,-0.6635635360754969,-0.37313916980640205
1733312797504791,0.034183364,0.025645811,-10.488298,0.01649237,-0.0057307305,-0.12759057,-0.021411803,0.008039583,-0.012194737,0.1014576559121207,0.06149379905895959,90.69008469092931,0.1890940981133763,-0.6501306958352002,-0.35178597731910033
1733312797512791,0.034644,0.025454722,-10.488371,0.01631097,-0.00566634,-0.12765142,-0.022675142,0.008048839,-0.0076070423,0.10328683119775144,0.05643960980732382,90.68744805763038,0.2286469107038418,-0.6317736564544709,-0.32957916236685264
1733312797528791,0.035539538,0.025087912,-10.488592,0.01591732,-0.005506239,-0.12787613,-0.024603097,0.010006304,-0.0140443435,0.10800195671542301,0.04700455672265662,90.68227707375969,0.2946953448544731,-0.5896908177917003,-0.32318649191772436
1733312797536791,0.035974596,0.0249122,-10.488742,0.015702605,-0.0054053143,-0.1281751,-0.026839318,0.012615578,-0.03737025,0.11074163863748207,0.04264517380953327,90.67912130191799,0.3424602402573833,-0.5449228641404179,-0.3944714802124566
1733312797544791,0.036506332,0.02500342,-10.489359,0.015557203,-0.0051710648,-0.12858312,-0.018175226,0.029281188,-0.051002946,0.11347775854892067,0.03868207227161361,90.67619774041445,0.3420149889298243,-0.4953876922399571,-0.36544518794232866
1733312797552791,0.037028387,0.025092477,-10.489991,0.015393434,-0.0049214647,-0.12891369,-0.020471167,0.031200003,-0.041320916,0.11574282930441764,0.03490136501771327,90.67280284838469,0.2831338444371219,-0.4725884067375429,-0.42436150372037723
1733312797568791,0.038043913,0.025264747,-10.491292,0.015046667,-0.004435367,-0.12944044,-0.021672923,0.03038111,-0.032922253,0.12065152515771187,0.028369865557660922,90.66605408402431,0.3067934908308888,-0.40821871625327183,-0.421797772523889
1733312797576791,0.038537648,0.025348313,-10.491962,0.014861802,-0.004194785,-0.12985511,-0.023108207,0.030072754,-0.051833685,0.12340001792026352,0.02570082209976326,90.66288457464296,0.34356159531895697,-0.3336304322372082,-0.396188672667434
1733312797584791,0.039022166,0.025430348,-10.492644,0.014671527,-0.003940534,-0.13014993,-0.023784347,0.031781383,-0.036852434,0.12634114881729072,0.023322518663453456,90.66011825650469,0.367641362128399,-0.29728792953872524,-0.34578976728409166
1733312797592791,0.039497573,0.025510995,-10.493339,0.014476193,-0.003696041,-0.130375,-0.024416715,0.030561611,-0.02813339,0.12942126510241544,0.02125458868921303,90.65704440343197,0.38501453564059146,-0.25849124678005325,-0.38423163409115835
1733312797608791,0.040424444,0.025655027,-10.49476,0.014039495,-0.0032303291,-0.1307141,-0.02729363,0.029106988,-0.021194106,0.1359518742737599,0.01836831332371968,90.6517984974806,0.4081630732090287,-0.1803922103433342,-0.327869121959986
1733312797616791,0.04087434,0.025725456,-10.495486,0.013794564,-0.0029855408,-0.13098723,-0.030616414,0.030598544,-0.034140423,0.13914124644122425,0.017480055182813255,90.64989963342606,0.3986715209330431,-0.11103226761330315,-0.23735800681826583
1733312797624791,0.04131523,0.025795013,-10.496223,0.013539245,-0.0027493825,-0.13118663,-0.031914793,0.029519781,-0.024925916,0.14249279013274216,0.016971686314346097,90.64774795237183,0.4189429614397393,-0.06354610855839475,-0.2689601317786048
1733312797632791,0.041747212,0.02586369,-10.496971,0.013277072,-0.002531632,-0.13129191,-0.03277161,0.027218804,-0.013159587,0.14597213752775193,0.016861289375010042,90.645937797778,0.43491842437622014,-0.013799617417006839,-0.2262693242289286
1733312797648791,0.042584673,0.025998838,-10.498492,0.012726027,-0.0020759208,-0.13139856,-0.034440365,0.028481953,-0.006665475,0.1526977212648704,0.01742283900564714,90.64285036364122,0.420348983569906,0.035096851914818566,-0.19296463354848128
1733312797656791,0.04299036,0.026065394,-10.499266,0.012453935,-0.0018645899,-0.13158193,-0.034011435,0.026416367,-0.02292171,0.15644357386340063,0.018152755477413348,90.64124521692305,0.46823157481627703,0.09123955897077593,-0.20064333977137777
1733312797664791,0.043387327,0.026132964,-10.500049,0.012152095,-0.001642795,-0.1316785,-0.03772997,0.027724352,-0.012071802,0.16024773252096908,0.019369556411349045,90.63984496288067,0.47551983219605415,0.15210011674196225,-0.17503175529741116
1733312797672791,0.04394799,0.02625667,-10.500803,0.011824055,-0.0013735045,-0.13171932,-0.041005082,0.033661313,-0.0051017846,0.16385017858748993,0.020866134994139113,90.6384446706882,0.45030575831510916,0.1870723228487583,-0.17503652405889228
1733312797688791,0.045027845,0.02650042,-10.502336,0.011149945,-0.0008443011,-0.13163714,-0.042131867,0.033075213,0.0051362435,0.17142472322922914,0.024092225686924425,90.637420015725,0.4734090401087004,0.20163066829908213,-0.0640409351996223
1733312797696791,0.045547407,0.026620658,-10.503115,0.010796901,-0.00057546084,-0.13170284,-0.044130486,0.033605028,-0.008212402,0.17509563099093378,0.025945314882433835,90.6371058844436,0.4588634702130795,0.231636149438676,-0.03926641017618477
1733312797704791,0.046053696,0.02673986,-10.503902,0.0104503445,-0.00033506472,-0.1317411,-0.043319535,0.030049514,-0.0047832727,0.1784349158491626,0.027884281737842808,90.63696921316412,0.41741060727860185,0.24237085692612156,-0.017083909934727075
1733312797712791,0.04654696,0.026857967,-10.504697,0.010102194,-9.013017e-05,-0.13165805,-0.043518838,0.030616818,0.010382383,0.18218844979418297,0.03011179747666086,90.63698294863038,0.4691917431275482,0.27843946735225655,0.0017169332827084167
1733312797728791,0.047495008,0.027091261,-10.506305,0.009369272,0.00037596893,-0.13135108,-0.045807622,0.029131193,0.019185245,0.189872782142193,0.03535920455663022,90.63744748676503,0.480270771750625,0.327962942498085,0.029033633415731896
1733312797736791,0.04794803,0.027221188,-10.507119,0.008968814,0.0006276557,-0.13139725,-0.050057188,0.031460848,-0.005770474,0.19326319802574102,0.038408244322933605,90.63776165605333,0.42380198544350256,0.3811299707879229,0.03927116103750412
1733312797744791,0.048388403,0.027350217,-10.50794,0.008549502,0.0008891164,-0.13135457,-0.05241402,0.032682583,0.0053346152,0.1966504925802416,0.04134896830846424,90.63718787962773,0.4234118193125742,0.3675904981913295,-0.07172205319976221
1733312797752791,0.04881632,0.027478427,-10.508767,0.00812352,0.0011433099,-0.13115501,-0.053247783,0.031774186,0.024944542,0.19983093522861495,0.04436957362360621,90.63677126378093,0.3975553310466687,0.3775756643927466,-0.05207698084989651
1733312797768791,0.049634866,0.027732443,-10.510435,0.007191738,0.0016234583,-0.13080731,-0.058236353,0.030009279,0.02173148,0.20513663131136017,0.05105889246533004,90.63622492016164,0.3316060051715773,0.41808242760773934,-0.03414647620623309
1733312797776791,0.05002561,0.027858257,-10.511277,0.0067298175,0.0018596079,-0.13079879,-0.057740077,0.02951869,0.001065433,0.20778856542292418,0.05459547120583151,90.63629329371514,0.3314917639454993,0.44207234256268346,0.008546694187852755
1733312797784791,0.050404415,0.027983302,-10.512124,0.006289356,0.0020736614,-0.1306953,-0.055057693,0.026756693,0.01293607,0.21028946295236722,0.05805461017677697,90.63656648454146,0.3126121911803792,0.43239237136818276,0.03414885328998606
1733312797792791,0.050771553,0.028107526,-10.512977,0.005838886,0.0022846535,-0.13046794,-0.05630875,0.026374007,0.028420238,0.2124404632885546,0.061667908952398785,90.6366075769949,0.2688750420234216,0.45166234695272667,0.0051365566817896105
1733312797808791,0.052927222,0.027433239,-10.513797,0.005454898,0.0021915599,-0.12972091,-0.02399925,-0.0058183502,0.04668906,0.2163660456640205,0.06940461069849771,90.63723606781379,0.24534889846661967,0.48354385913118264,0.03928067617969816
1733312797816791,0.0539573,0.027105393,-10.514229,0.0052423268,0.0021449407,-0.12943801,-0.02657139,-0.0058274013,0.03536232,0.21801557794852588,0.07363895775794076,90.63848614400715,0.2061915355631725,0.5292933824303816,0.1562595241701888
1733312797824791,0.054960348,0.026785415,-10.514675,0.005028185,0.0020820317,-0.12922627,-0.026767723,-0.007863622,0.026468186,0.21940166963149335,0.07765865432100444,90.63985919447472,0.17326146037093482,0.5024620703829606,0.1716313084468862
1733312797832791,0.055936947,0.02647305,-10.515136,0.004793895,0.002023609,-0.12891565,-0.029286252,-0.007302849,0.038826838,0.22106260802612301,0.08153800541073356,90.64136887895503,0.20761729932870687,0.4849188862161383,0.18871056003944905
1733312797848791,0.057813164,0.02587024,-10.516095,0.0043083113,0.001907625,-0.12829041,-0.030348979,-0.0072489926,0.039077364,0.2253197757209395,0.08889322682251824,90.64441537658361,0.2660729809260311,0.45970133823654274,0.19040610178522735
1733312797856791,0.058713898,0.025579305,-10.516594,0.004040173,0.00186144,-0.12805836,-0.03351731,-0.005773123,0.029006971,0.22759173315767803,0.09196250688318064,90.64600686540743,0.2839946795923146,0.3836600075827995,0.19893610297893508
1733312797864791,0.05959032,0.02529501,-10.517105,0.0037546593,0.0017865311,-0.12782829,-0.035689183,-0.009363619,0.02875924,0.22970424979653487,0.09472945754094252,90.64753711772559,0.2640645798571038,0.3458688322202362,0.1912815397693549
1733312797872791,0.060443006,0.025017021,-10.517629,0.0034733866,0.0017174399,-0.12755962,-0.035159085,-0.008636401,0.033583492,0.23200056703957136,0.09698623791059824,90.64910128762439,0.28703965537956216,0.282097546206964,0.1955212373509283
1733312797888791,0.062085386,0.024490934,-10.518708,0.0028844073,0.0016381276,-0.12692983,-0.036811206,-0.004957015,0.039361414,0.23808779038531014,0.10056459534308812,90.65192236548535,0.3804514591086747,0.22364733953061755,0.17631736630969191
1733312797896791,0.06287283,0.024236817,-10.519264,0.002556648,0.0015999796,-0.12669395,-0.040969897,-0.0047685024,0.02948567,0.24150263844923295,0.10199990447680919,90.65302211171607,0.42685600799034806,0.17941364171513496,0.13746827883946278
1733312797904791,0.06363842,0.023988407,-10.519831,0.0022409908,0.00156992,-0.12646507,-0.03945717,-0.0037574498,0.028610228,0.24479212853556687,0.10293328066797941,90.65413567345229,0.41118626079174014,0.1166720238962767,0.13919521702764384
1733312797912791,0.06438267,0.023745567,-10.520407,0.0019164603,0.0015414725,-0.12624967,-0.0405663,-0.0035559349,0.026924534,0.24815193574401923,0.10341887188671703,90.6552968096967,0.41997590105654575,0.06069890234220244,0.14514203055012367
1733312797928791,0.06589902,0.023276433,-10.522471,0.0013239817,0.0016164721,-0.12601142,-0.037029915,0.0046874774,0.014890916,0.25487285465312853,0.1029536512064499,90.65632821953479,0.42005743181933264,-0.0290762925166948,0.06446311488133338
1733312797936791,0.06662585,0.023051264,-10.523501,0.0009895848,0.0016652838,-0.12595086,-0.041799605,0.006101458,0.0075697894,0.25859044374280316,0.10247849205822114,90.65613019584582,0.46469863620932605,-0.05939489352859691,-0.02475296112111727
1733312797944791,0.06734006,0.022823816,-10.52453,0.0006927415,0.0017050972,-0.12585649,-0.03710542,0.0049766675,0.011796131,0.2625021156044555,0.10162711829984121,90.65597303334187,0.4889589827065474,-0.10642171979749118,-0.019645312995403733
1733312797952791,0.068034485,0.022602376,-10.5255575,0.00038224814,0.0017661386,-0.12569396,-0.038811665,0.00763018,0.020315869,0.266490721718724,0.10042571683970943,90.65667653682866,0.49857576428356254,-0.15017518251647266,0.08793793584992576
1733312797968791,0.0693651,0.02217704,-10.527605,-0.0002796952,0.0018582437,-0.1252066,-0.041371457,0.00575657,0.030459834,0.2744935195647894,0.098052516027857,90.65825440484012,0.5001748653790865,-0.14832505074077665,0.0986167507165294
1733312797976791,0.07000189,0.021972917,-10.528626,-0.0006308038,0.0018918839,-0.1250689,-0.043888573,0.004205023,0.017212704,0.27853172333415177,0.0964410826505034,90.65919019802456,0.5047754711702971,-0.20142917216920012,0.1169741480554177
1733312797984791,0.070620015,0.021774242,-10.529645,-0.0009929936,0.0019284674,-0.1248086,-0.04527372,0.004572939,0.032537617,0.28272515178707297,0.09460694752558574,90.65983219413717,0.524178556615149,-0.2292668906147066,0.08024951407569934
1733312797992791,0.07121982,0.021580929,-10.530662,-0.0013572951,0.001956264,-0.12452235,-0.045537684,0.0034745752,0.035781413,0.28709119055711574,0.09266839851200138,90.66056301611634,0.5457548462553445,-0.2423186266980456,0.09135274739578075
1733312798008791,0.07236555,0.021209918,-10.532686,-0.0021169903,0.0020224133,-0.12383892,-0.04748095,0.00413433,0.04271464,0.2958731949333787,0.08848224771131233,90.66202473860878,0.5488752735164373,-0.26163442504306605,0.09135765577725126
1733312798016791,0.07288926,0.021037659,-10.533694,-0.0025543333,0.00206946,-0.123584576,-0.054667875,0.005880836,0.03179256,0.30007675967076924,0.08621276797982752,90.66286487562778,0.5254455921738161,-0.28368496643559976,0.1050171273745329
1733312798024791,0.07339582,0.020870337,-10.5347,-0.002997327,0.0021119663,-0.12325844,-0.055374198,0.0053132824,0.04076678,0.30455322566586257,0.08383795394709223,90.6633497870849,0.5595582493866653,-0.29685175409191156,0.060613932141600456
1733312798032791,0.07388558,0.020708025,-10.535703,-0.0034238582,0.002179931,-0.1227214,-0.05331641,0.008495582,0.06713066,0.30908758688621574,0.08134784714924224,90.66379368046137,0.5667951525441426,-0.3112633497312483,0.055486672058936475
1733312798048791,0.07490158,0.020439804,-10.537443,-0.004391332,0.002267824,-0.12158474,-0.06046712,0.0054933187,0.07104082,0.3182016557352707,0.07650387772867363,90.66474992263338,0.5696293030659356,-0.30274808878553816,0.05976513575014072
1733312798056791,0.07542483,0.02033198,-10.53819,-0.0049236794,0.0022948463,-0.12119277,-0.0665434,0.0033777903,0.048996877,0.3227624550511856,0.07425143413749831,90.66674452228168,0.5700999144893637,-0.28155544889691536,0.24932495603791507
1733312798064791,0.07592888,0.020227125,-10.5389385,-0.0054401043,0.0023228342,-0.120704256,-0.064553104,0.003498484,0.061064024,0.3270601014027205,0.07215931347045144,90.66890978572543,0.5372057939418637,-0.26151508338085777,0.2706579304690441
1733312798072791,0.07641414,0.020125221,-10.539688,-0.0059816963,0.0023535744,-0.12005078,-0.067699,0.0038425203,0.08168443,0.3312916949093994,0.07012547633480208,90.67112285688368,0.5289491883348625,-0.25422964195617165,0.27663389478182504
1733312798088791,0.07732913,0.01992999,-10.541191,-0.007074736,0.0024145567,-0.118824914,-0.068314984,0.0038113939,0.076616645,0.33989211547414194,0.06584462557750202,90.67560379674796,0.5375262852964078,-0.26755317233125336,0.2800587415175992
1733312798096791,0.07775268,0.01983779,-10.541944,-0.007631193,0.0024517218,-0.11837473,-0.0695571,0.0046456405,0.0562733,0.34392146697722226,0.06382384878467112,90.67778958866204,0.5036689378850382,-0.2525970991038628,0.2732239892590593
1733312798104791,0.078158595,0.019748358,-10.542698,-0.008198644,0.0025046098,-0.11787222,-0.07093139,0.006610993,0.06281305,0.3476955506150739,0.06208282984621473,90.67996163994641,0.4717604547314568,-0.21762736730704865,0.27150641054638935
1733312798112791,0.0785471,0.019661753,-10.543453,-0.008769577,0.002554035,-0.11727552,-0.07136666,0.0061781607,0.07458776,0.3510170945404196,0.060212904413375255,90.68202445589839,0.4151929906682174,-0.23374067910493448,0.25785199399708647
1733312798120791,0.078918464,0.01957787,-10.544209,-0.009341067,0.0026019458,-0.11668214,-0.07143617,0.0059888405,0.07417239,0.3541440880382817,0.058175585962617064,90.68425122525242,0.3908741872327526,-0.2546648063447736,0.2783461692548277
1733312798136791,0.07961089,0.01941808,-10.54572,-0.010505956,0.0027087545,-0.115690984,-0.07280555,0.006675545,0.061947383,0.36026133973743846,0.05408639510007805,90.6885545099713,0.38232823119729864,-0.25557442890868837,0.26895529492939935
1733312798144791,0.07993239,0.019342216,-10.546478,-0.0110901715,0.0027792533,-0.11523668,-0.07302698,0.008812348,0.05678832,0.36288235320877227,0.05216033428701959,90.69082229809939,0.3276266839167286,-0.24075760163230728,0.2834735160123776
1733312798152791,0.08023779,0.019269004,-10.5472355,-0.011683667,0.0028400244,-0.11473344,-0.07418694,0.0075963903,0.06290432,0.3648060073262389,0.050388326374591765,90.69315842445614,0.24045676468333216,-0.22150098905347845,0.2920157945932286
1733312798168791,0.0808948,0.019563397,-10.548878,-0.012769404,0.0030834796,-0.11360708,-0.06785855,0.015215947,0.07039774,0.3673143827907554,0.04644371729702051,90.69744804905618,0.15677346653227775,-0.2465380673482038,0.26810153750238636
1733312798176791,0.08121626,0.019922005,-10.549758,-0.013286421,0.0032719914,-0.11317397,-0.06462715,0.023563974,0.05413871,0.36802737127701624,0.04441575078553688,90.69991393956879,0.08912356078260572,-0.25349581393545284,0.30823631407546503
1733312798184791,0.08152203,0.020272575,-10.550634,-0.013801975,0.0034482442,-0.11272305,-0.06444426,0.022031598,0.05636457,0.3684227357377629,0.0426942758129691,90.7025777651646,0.049420557593337786,-0.21518437157097278,0.3329781994778623
1733312798192791,0.08181241,0.02061539,-10.551508,-0.014324432,0.0036364605,-0.112169504,-0.06530713,0.023527041,0.06919354,0.36870933103239556,0.04116080455218164,90.70553547572308,0.0358244118290781,-0.19168390759843193,0.3697138198090752
1733312798208791,0.08234787,0.021278605,-10.553241,-0.0153588755,0.003983063,-0.11095567,-0.0646527,0.021662664,0.075864606,0.3690836764318046,0.03905294362475188,90.71054921199347,0.02339658746306726,-0.13174130796436037,0.31335851689886957
1733312798216791,0.082593694,0.021599557,-10.554102,-0.015869979,0.0041605295,-0.11054595,-0.06388791,0.022183288,0.051215287,0.3687559188054418,0.03828034500001971,90.71305616508796,-0.040969703295354584,-0.0965748280915217,0.3133691368130933
1733312798224791,0.082825266,0.021913828,-10.554959,-0.016388189,0.004351685,-0.110130295,-0.06477628,0.023894418,0.05195662,0.3681901499795272,0.037718748580257956,90.71567909496626,-0.07072110323932136,-0.07019955247021875,0.3278662347876198
1733312798232791,0.0830501,0.022218568,-10.555813,-0.016886208,0.0045373873,-0.10962291,-0.06225239,0.023212807,0.06342307,0.36747147873678104,0.03751933903002326,90.71813811267651,-0.08983390534327328,-0.024926193779337167,0.3073772137809482
1733312798248791,0.08345884,0.022809692,-10.557508,-0.017890349,0.004890633,-0.10841585,-0.062758796,0.022077845,0.075441316,0.3657745190288561,0.038535089768955935,90.72308359506025,-0.10605998174530654,0.06348442118329216,0.3090926489834398
1733312798256791,0.08364314,0.023096574,-10.558351,-0.01840027,0.0050760843,-0.10799923,-0.06374018,0.023181433,0.052077692,0.36462905440754056,0.03929782997612297,90.72547448880705,-0.14318307766444813,0.09534252589587942,0.29886171835050734
1733312798264791,0.083814435,0.023377897,-10.559189,-0.018895727,0.0052383393,-0.10757923,-0.061932016,0.020281876,0.05249958,0.36304014822686603,0.040390006836977445,90.72798122700891,-0.19861327258431177,0.13652210760680933,0.313342275231795
1733312798272791,0.083973,0.02365379,-10.560024,-0.019392535,0.005404543,-0.10705779,-0.06210105,0.020775476,0.06518047,0.36169901317947417,0.04176895835183726,90.73022869927419,-0.1676418809239877,0.17236893935747716,0.28093403316122534
1733312798288791,0.084253035,0.024190199,-10.561683,-0.020371482,0.005724073,-0.105854414,-0.061184164,0.01997061,0.07521082,0.35924352209965776,0.045031882061147534,90.73457983036097,-0.15346819248852217,0.20393273183189223,0.2719456929230113
1733312798296791,0.084562615,0.024613494,-10.562956,-0.020859297,0.006089557,-0.10549677,-0.060976945,0.045685504,0.044705343,0.3574608396263438,0.0469571289136526,90.73664272877063,-0.2228353091642523,0.2406558565631331,0.2578623012079205
1733312798304791,0.08486396,0.025036832,-10.564214,-0.021352662,0.0064401357,-0.10511639,-0.06167055,0.043822333,0.04754774,0.3553692836370927,0.04869651990117451,90.7366564758374,-0.2614444986563828,0.21742387344023914,0.0017183833468862935
1733312798312791,0.08514833,0.025454145,-10.565457,-0.021830417,0.006786604,-0.10462449,-0.05971943,0.043308534,0.061487775,0.3533935717057177,0.050764947421028654,90.7351947160319,-0.2469639914218765,0.2585534399817672,-0.18271997568845683
1733312798328791,0.08566786,0.026271435,-10.567897,-0.022781871,0.0074535077,-0.10345232,-0.059465874,0.041681487,0.07326063,0.3489565516607708,0.05552014851229785,90.7324419806779,-0.27731375280918147,0.29720006820432493,-0.1720459596244684
1733312798336791,0.08590357,0.026671778,-10.569094,-0.023268372,0.007774804,-0.10303321,-0.060812566,0.040162005,0.052388754,0.3466146570085244,0.058332760436045045,90.73108949478065,-0.2927368315308028,0.3515764904683992,-0.1690607371574514
1733312798344791,0.086123675,0.027066823,-10.570277,-0.02374265,0.008091987,-0.10254347,-0.05928473,0.039647914,0.06121676,0.3442059882567871,0.061641535335587964,90.72975071164727,-0.3010835939671588,0.4135968624428647,-0.1673478916715154
1733312798352791,0.08632854,0.027456773,-10.571445,-0.024213824,0.0084081115,-0.10185495,-0.058896836,0.039515547,0.086065374,0.34175056982479907,0.06539774148165978,90.72833684571026,-0.30692730399850465,0.46952576825897624,-0.17673324212725353
1733312798368791,0.086693846,0.02822163,-10.573737,-0.025151327,0.008971372,-0.100520514,-0.058593925,0.03520376,0.08340226,0.33657911510808247,0.07424424375653396,90.72529039102531,-0.3232159197947875,0.5529063921796369,-0.190403417808958
1733312798376791,0.08684363,0.028592018,-10.574862,-0.025622053,0.009231915,-0.1000352,-0.058840726,0.032567885,0.060664486,0.3340103853891516,0.07927369541948215,90.72357601956085,-0.3210912148663587,0.6286814578685227,-0.2142964330572665
1733312798384791,0.08697951,0.028957777,-10.5759735,-0.026101489,0.009497836,-0.09946052,-0.05992944,0.03324018,0.07183477,0.33177074622315134,0.08442115534735288,90.72236708488495,-0.27995489575003,0.6434324909838419,-0.151116834488418
1733312798392791,0.08710171,0.029318934,-10.577071,-0.026584135,0.009724011,-0.098774426,-0.06033084,0.02827181,0.08576176,0.3296444362530592,0.08992209201998953,90.72104887534374,-0.2657887462615167,0.6876170840795813,-0.16477619265121693
1733312798408791,0.087305985,0.030027473,-10.579226,-0.027553694,0.010141057,-0.097286135,-0.06059743,0.026065389,0.09301817,0.32524255893378207,0.10158704423630642,90.71828260568475,-0.27511733245482256,0.729059513519806,-0.17289185368662854
1733312798416791,0.087388575,0.030375008,-10.580282,-0.028028386,0.010332321,-0.096734785,-0.05933642,0.02390798,0.0689188,0.322708815797972,0.1075487554362709,90.7168141849653,-0.3167178919762544,0.745213899995559,-0.18355258993135687
1733312798424791,0.08771702,0.030609827,-10.58096,-0.028323127,0.010410514,-0.096062176,-0.036842655,0.009774114,0.08407607,0.3201198973326173,0.11348684223666494,90.71539348589513,-0.3236148081693408,0.742260850049256,-0.17758738377163316
1733312798432791,0.08802839,0.030841757,-10.581635,-0.028616335,0.010483307,-0.09516519,-0.036651034,0.009099138,0.11212285,0.3173623597948311,0.11970957100535662,90.71416410241935,-0.3446921922232807,0.7778410960864582,-0.1536729344735104
1733312798448791,0.08859104,0.031258054,-10.582971,-0.029237477,0.010505727,-0.09343756,-0.038821366,0.0014012329,0.10797707,0.3121033140704973,0.13217048086026167,90.71307831163917,-0.32869035777085814,0.7788068659315659,-0.06786192376050991
1733312798456791,0.08884824,0.031461783,-10.583632,-0.029545339,0.010510688,-0.09282895,-0.038482714,0.00062014436,0.076076016,0.30940000537046186,0.13848845014943242,90.7133039885951,-0.3379135875044352,0.7897461611463451,0.028209619490492596
1733312798464791,0.08908981,0.031662613,-10.584291,-0.0298531,0.01052147,-0.09216097,-0.03847014,0.0013477401,0.08349772,0.30669405396007515,0.1447184154550073,90.71361840904677,-0.338243926298336,0.7787456631968587,0.03930255645974397
1733312798472791,0.08931614,0.031860594,-10.584947,-0.030168304,0.0105290385,-0.09134482,-0.03940053,0.00094610726,0.10201893,0.3041107764774409,0.1508608436887984,90.7140966994988,-0.3229096853292841,0.7678035292238882,0.059786306503301655
1733312798488791,0.08972426,0.032247704,-10.586245,-0.030794524,0.010521278,-0.08979323,-0.039138712,-0.0004850444,0.096974425,0.29972202492047045,0.1625276241733323,90.71523789554898,-0.27429697231065,0.7291737802833683,0.07132475313590457
1733312798496791,0.08990675,0.032436892,-10.586888,-0.031110344,0.0104927495,-0.08926491,-0.039477598,-0.003566034,0.066040084,0.29803531324718024,0.1680099143279839,90.71588018449359,-0.21083895916128137,0.6852862693314509,0.08028611807606331
1733312798504791,0.09007518,0.03262305,-10.587531,-0.0314541,0.010468075,-0.08875989,-0.042969592,-0.0030843073,0.06312691,0.29647893338841474,0.17321475499631928,90.71627647699052,-0.1945474823456874,0.6506050835419206,0.04953656211734869
1733312798512791,0.09023139,0.032812867,-10.58817,-0.03178022,0.0104416115,-0.08809113,-0.040764917,-0.0033079411,0.08359551,0.29507430061209333,0.1780831686286915,90.71650215555853,-0.1755790970401772,0.6085517040465295,0.028209821000895547
1733312798528791,0.09050399,0.033183128,-10.589437,-0.032402862,0.010352454,-0.08674127,-0.03891508,-0.0055723353,0.08436618,0.2930651015584481,0.1874110800375984,90.71642737059943,-0.1255749408528263,0.582994463056681,-0.00467405994305096
1733312798536791,0.09062102,0.03336338,-10.590066,-0.032710545,0.010286175,-0.086288475,-0.038460363,-0.008284929,0.056599263,0.29218926880143065,0.19146919508237759,90.71655047588112,-0.10947909462718228,0.5072643805973976,0.015388160210092747
1733312798544791,0.090786725,0.033480164,-10.59088,-0.03295758,0.010121802,-0.085865825,-0.030879395,-0.020546604,0.052831132,0.29117772254862895,0.19521308053841788,90.71666679423653,-0.12644328160020846,0.4679856820050366,0.014539794425979944
1733312798552791,0.09093934,0.033594213,-10.591687,-0.033224333,0.009996275,-0.085354425,-0.033344142,-0.015690805,0.06392505,0.29017399318482096,0.19910342991261015,90.71744567862335,-0.1254661704760034,0.48629367177403615,0.09736054835324978
1733312798568791,0.09120639,0.03381443,-10.59328,-0.03374789,0.009722893,-0.08424111,-0.03272225,-0.017086392,0.069582365,0.2886880599666907,0.20625436255396717,90.7190512135659,-0.09287082613313917,0.4469332900848132,0.10034593390956917
1733312798576791,0.09132124,0.03392044,-10.594066,-0.034039527,0.009560696,-0.08385094,-0.03645476,-0.020274658,0.048770566,0.2880424052666559,0.2093187897656952,90.71989831020696,-0.08070683750434794,0.38305340146600353,0.10588708013191449
1733312798584791,0.09141784,0.03403845,-10.594845,-0.034338742,0.009437762,-0.08344791,-0.037401915,-0.015366705,0.05037896,0.2874432006956526,0.21205201783068148,90.72060206934768,-0.07490057137541768,0.341653508123283,0.08796989258917802
1733312798592791,0.09150237,0.034153778,-10.595618,-0.034665562,0.00932078,-0.08287909,-0.04085246,-0.014622811,0.07110275,0.28705348946850634,0.21466507689363035,90.72054073092438,-0.04871390339328076,0.32663238286861135,-0.007667302911815105
1733312798608791,0.09163589,0.034376327,-10.597142,-0.035296857,0.009061437,-0.08162636,-0.039455943,-0.016208911,0.07829536,0.2865562640588888,0.2188916602209089,90.7205203706691,-0.03107658810109774,0.2641614579549088,-0.0012725159546226415
1733312798616791,0.09168542,0.034483653,-10.597894,-0.03561135,0.008925624,-0.08126415,-0.039311588,-0.016976614,0.045276243,0.2864675862534672,0.22037803769905615,90.7202950335382,-0.011084725677701253,0.18579718476840726,-0.02816714136344437
1733312798624791,0.09172371,0.034588356,-10.5986395,-0.035932463,0.008788571,-0.08088653,-0.040139068,-0.017131679,0.04720315,0.28628911217050346,0.22174288507242076,90.72031556557032,-0.022309260370466755,0.17060592167057684,0.00256650401519146
1733312798632791,0.0917509,0.034690388,-10.5993805,-0.03626828,0.008633949,-0.08034908,-0.041977033,-0.019327737,0.067180954,0.2860821168247638,0.22316949822723783,90.720288289702,-0.02587441821745166,0.17832664435213227,-0.0034094835410831458
1733312798648791,0.09177258,0.034886584,-10.60084,-0.03693176,0.008341879,-0.079095714,-0.0414676,-0.018254388,0.078335404,0.28542824344806433,0.2249795121991166,90.72027471616285,-0.04086708604371797,0.1131258732424227,-0.0008483461966667971
1733312798656791,0.09176812,0.034981683,-10.601561,-0.03726488,0.008193735,-0.07879632,-0.041639894,-0.018517952,0.037424266,0.2850138983456479,0.2255113639297379,90.72019275974561,-0.0517931378020576,0.06648146632766096,-0.010244552154289632
1733312798664791,0.09175323,0.035074253,-10.602276,-0.037614692,0.008047852,-0.07842413,-0.043726522,-0.018235411,0.046523284,0.28443494545166176,0.22615073863553786,90.72006312416721,-0.07236911174826302,0.07992183822499765,-0.016204447299764592
1733312798672791,0.09183764,0.03570464,-10.602634,-0.037943486,0.008179848,-0.07779364,-0.04109926,0.016499544,0.0788113,0.28363024072117604,0.22668176330931822,90.7200220601161,-0.10058809131071392,0.06637808422254596,-0.005133006389216705
1733312798688791,0.09196685,0.036925424,-10.603357,-0.038611643,0.008452603,-0.07642724,-0.041759804,0.017047161,0.08539995,0.2820576260050254,0.22593545259913456,90.71580066012045,-0.09828841975941684,-0.04664441938647919,-0.263837499728214
1733312798696791,0.09201211,0.037516475,-10.6037245,-0.038973544,0.008562727,-0.07602821,-0.045237593,0.013765529,0.04987884,0.2813119044094854,0.22544818419068066,90.71372412986734,-0.09321519944250004,-0.060908551056738834,-0.2595662816387512
1733312798704791,0.09204469,0.03809509,-10.6040945,-0.039321948,0.00867951,-0.07549028,-0.043550503,0.014597898,0.06724149,0.28056334482604595,0.22528185712557108,90.71168166321239,-0.09356994792992777,-0.020790883138694427,-0.2553083318684578
1733312798712791,0.09206492,0.038661666,-10.6044655,-0.03966631,0.00878961,-0.07473806,-0.04304526,0.013762502,0.09402725,0.27969845906194546,0.2256155518023886,90.70962557980212,-0.10811072051256522,0.04171183460218669,-0.25701042628284154
1733312798728791,0.092072465,0.039794814,-10.605213,-0.04032976,0.009025653,-0.0735624,-0.041465737,0.014752673,0.07347902,0.2776105308333255,0.22669067464149661,90.70438642483153,-0.13049551428874845,0.0671951774442518,-0.3274471856630657
1733312798736791,0.09205874,0.040344298,-10.605592,-0.040657766,0.00911001,-0.07333162,-0.04100054,0.010544666,0.028847715,0.27612722170382903,0.2273697501863989,90.7012990106144,-0.18541364118705758,0.08488444311278498,-0.3859267771392997
1733312798744791,0.09203372,0.040882803,-10.605974,-0.040982753,0.009214678,-0.07306586,-0.040623356,0.013083451,0.033219345,0.2745987692593801,0.22852630246492245,90.69815008639735,-0.19105655555611503,0.14456903481544534,-0.39361552713245673
1733312798752791,0.09199755,0.04141073,-10.60636,-0.04130565,0.009309173,-0.07258952,-0.04036212,0.011811847,0.059543174,0.27309578592584155,0.23013167658352215,90.69501486262432,-0.18787291669231748,0.2006717648249605,-0.3919029716288229
1733312798768791,0.09189292,0.042435855,-10.607138,-0.041930404,0.009471879,-0.071640916,-0.039047096,0.010169169,0.059287526,0.2692807470349032,0.23420477060502118,90.68903130334681,-0.23843993068364674,0.2545683763436903,-0.3739724548441872
1733312798776791,0.09182502,0.042933673,-10.60753,-0.0422162,0.009556697,-0.071439855,-0.035724603,0.010602175,0.02513267,0.2671334476524669,0.23669642330842536,90.68589611815293,-0.2684124228045412,0.31145658792552205,-0.3918981492352385
1733312798784791,0.09174704,0.043422025,-10.607926,-0.042520132,0.009628935,-0.0712064,-0.03799144,0.009029754,0.02918206,0.26490379583382534,0.23955453531480292,90.68275418346782,-0.2787064773301898,0.3572640007971955,-0.3927418356378179
1733312798792791,0.09165816,0.043889586,-10.608325,-0.042815797,0.009680052,-0.070729405,-0.03695814,0.0063896873,0.0596242,0.2626639669621971,0.2427828154719349,90.6799059270367,-0.2799786089535297,0.4035350196414959,-0.35603205389111503
1733312798808791,0.090729244,0.045620557,-10.610006,-0.043877542,0.010182394,-0.07006462,-0.06635906,0.031396337,0.04154909,0.2573012491586617,0.2496480994348759,90.67528871659763,-0.3351698627209628,0.429080247683812,-0.2885756524411788
1733312798816791,0.09026076,0.04646071,-10.610835,-0.04438692,0.010421422,-0.070045836,-0.06367219,0.029878573,0.0023478642,0.2545338000155454,0.25339820290917087,90.6728571533469,-0.3459311428895393,0.4687629342868701,-0.3039454063432085
1733312798824791,0.08978956,0.047284536,-10.611656,-0.044899065,0.010640498,-0.06991203,-0.06401818,0.027384492,0.016725622,0.251891293520801,0.25759886437610335,90.67036412071948,-0.33031331184305335,0.5250826833665628,-0.3116290784249694
1733312798832791,0.08931561,0.048092365,-10.612469,-0.045403775,0.010840913,-0.06954509,-0.06308872,0.025051877,0.045867633,0.2490059131590866,0.26211844169820475,90.66804195108192,-0.36067254521429515,0.5649471652626757,-0.2902712046971
1733312798848791,0.08835948,0.049661182,-10.614067,-0.04637855,0.011175117,-0.06874742,-0.060923394,0.02088776,0.04985416,0.24266505247409648,0.27188470440945034,90.66414892446323,-0.396303792811883,0.6103914194528492,-0.24331416366778552
1733312798856791,0.08787738,0.050422665,-10.614854,-0.04685505,0.011322435,-0.06855065,-0.05956273,0.018414691,0.024597159,0.23921518826525748,0.27753165489390597,90.66214096045066,-0.43123302610487646,0.7058688105569534,-0.2509955015714761
1733312798864791,0.087384626,0.051150326,-10.615632,-0.047338333,0.01141967,-0.06829084,-0.060410235,0.012154341,0.03247615,0.2351106605669453,0.2837043789912645,90.66025601023783,-0.5130659622890201,0.7715905121698147,-0.23561877660364347
1733312798872791,0.08688928,0.05186345,-10.616403,-0.047795665,0.011499875,-0.06787544,-0.05716644,0.010025687,0.051924955,0.23071685795914218,0.2901628307287106,90.65986031337663,-0.5492253259753892,0.8073064671807585,-0.049462107650879994
1733312798888791,0.0858911,0.053247295,-10.617918,-0.048664514,0.011634889,-0.06693191,-0.054303087,0.008438365,0.05897041,0.22177517089551446,0.30412365836674193,90.65900042316152,-0.5588554414767324,0.8725517273769616,-0.05374313844410096
1733312798896791,0.08538852,0.053918485,-10.618663,-0.049060438,0.011673475,-0.06670162,-0.049490478,0.004823203,0.028786248,0.2170937751866404,0.3113605349477097,90.65867306226316,-0.5851744636092616,0.9046095726209726,-0.040920112293652555
1733312798904791,0.084883675,0.054576155,-10.619401,-0.04945922,0.011702714,-0.06641465,-0.04984764,0.0036548588,0.03587175,0.21209926170520527,0.31889757593836654,90.65856417736936,-0.6243141851793876,0.9421301238320984,-0.013610611727021995
1733312798912791,0.084376514,0.055220574,-10.6201315,-0.049862564,0.011713315,-0.06598661,-0.050418075,0.0013251555,0.05350448,0.20660379760914394,0.32670428589772693,90.65831873462176,-0.6869330120076673,0.9758387449200555,-0.030680343448701134
1733312798928791,0.084303655,0.05696264,-10.622613,-0.050316643,0.011966694,-0.06514137,-0.028379958,0.015836209,0.052827407,0.19540441098593697,0.3426144424800562,90.65683076680656,-0.6999616639504347,0.9943847863955766,-0.09299798844981343
1733312798936791,0.08424525,0.057803735,-10.623822,-0.050529566,0.012048009,-0.06488958,-0.026615335,0.010164337,0.031474046,0.189769765530241,0.35057165173524235,90.65536261941259,-0.7043306819619969,0.9946511568982688,-0.18351842424757972
1733312798944791,0.08417394,0.058627702,-10.6250105,-0.05074539,0.012133547,-0.06450171,-0.026978085,0.010692281,0.04848372,0.1837869107363074,0.35861480708869165,90.65402439350521,-0.7478568492417015,1.005394419181162,-0.16727823842090778
1733312798952791,0.08409011,0.05943501,-10.626177,-0.050941072,0.01218882,-0.06391247,-0.024460254,0.0069091325,0.07365458,0.1777893816485617,0.3669694698717093,90.65280914197437,-0.749691135968211,1.0443328478772065,-0.15190644135519998
1733312798968791,0.08388657,0.061000157,-10.628446,-0.051326714,0.012243506,-0.062699206,-0.024102626,0.0034178372,0.075829215,0.16498926698309405,0.3843484594070043,90.65095242122658,-0.8000071665917295,1.0861868459559374,-0.11604504673731238
1733312798976791,0.08376765,0.061758615,-10.629549,-0.051505618,0.012242647,-0.062254395,-0.022362916,-0.00010733492,0.05560135,0.15816976234421548,0.3931399690062979,90.65019488340829,-0.8524380798598178,1.0989386999117006,-0.0946922272861373
1733312798984791,0.083637804,0.06250126,-10.630633,-0.051679015,0.012225424,-0.061772563,-0.021674668,-0.0021528685,0.060229093,0.1516942238188819,0.40197729928139836,90.64961499929541,-0.8094423156667004,1.104666284387562,-0.07248551411004917
1733312798992791,0.083497345,0.063228324,-10.631698,-0.051853858,0.012187786,-0.061087538,-0.021855345,-0.0047046924,0.08562812,0.14551156234567228,0.4104864881265801,90.64900775548496,-0.7728326841512029,1.0636486056477146,-0.07590547630658587
1733312799008791,0.0831639,0.06459878,-10.633765,-0.052197624,0.011978415,-0.059641175,-0.021485377,-0.013085722,0.090397656,0.13373762971313558,0.4276856580895326,90.64928917566152,-0.7358707895335438,1.0749481226845319,0.01758876103558963
1733312799016791,0.08298288,0.06526147,-10.634758,-0.052346382,0.011855967,-0.059094246,-0.018594787,-0.015305936,0.06836606,0.12812183331412227,0.43669994998817896,90.6500687573649,-0.70197454987666,1.1267864873307964,0.09744771292212127
1733312799024791,0.0827928,0.06590941,-10.635733,-0.05249187,0.01170868,-0.058536064,-0.018185936,-0.018410966,0.069772825,0.12255005497896534,0.4458636142445252,90.6508413948146,-0.6964722918946177,1.1454580320432801,0.0965796812134062
1733312799032791,0.08259398,0.06654277,-10.636689,-0.052628532,0.011549728,-0.057824638,-0.017082784,-0.019868951,0.08892826,0.11693033720894246,0.45492072492311364,90.65169603243672,-0.7024647212528606,1.1321388348235553,0.10682970276402604
1733312799048791,0.08188498,0.06791585,-10.639325,-0.053133614,0.011219728,-0.056446932,-0.031567644,-0.02062501,0.08610659,0.10716856894930504,0.47212274580042446,90.65328245215022,-0.6101105162273385,1.0751263048319262,0.0991512320938044
1733312799056791,0.081379846,0.06865167,-10.640986,-0.053505696,0.011023743,-0.056007173,-0.046510246,-0.02449809,0.054969914,0.10320702853336473,0.4804375610989053,90.65695819100982,-0.4951925519925388,1.0393519123101012,0.45946735744964157
1733312799064791,0.08087129,0.06936953,-10.642612,-0.05384899,0.010790768,-0.055532333,-0.042911615,-0.029121874,0.059355047,0.09915174702497995,0.48851785703841355,90.6601831591814,-0.5069101885480983,1.0100369924385346,0.40312102144782924
1733312799072791,0.08035226,0.07006849,-10.644187,-0.054190457,0.010528093,-0.05483951,-0.04268344,-0.03283436,0.08660275,0.09528874860816246,0.49636107152379505,90.66364047331137,-0.48287480210218525,0.9804018106726872,0.4321642662461593
1733312799088791,0.07930534,0.071414016,-10.647229,-0.054821175,0.009992855,-0.05321184,-0.039419856,-0.033452407,0.10172929,0.08760346693156591,0.5119934184805702,90.67060265926142,-0.4803301047872847,0.9770216847984444,0.4351366218778096
1733312799096791,0.07877771,0.072061054,-10.648698,-0.05511822,0.009680629,-0.05259403,-0.0371309,-0.039028235,0.07722666,0.08356338779185993,0.5196954626180681,90.67425119917758,-0.5050098924632468,0.9627555171872358,0.45606748952049914
1733312799104791,0.07824733,0.07269112,-10.650134,-0.055423323,0.00936458,-0.051810924,-0.03813766,-0.03950612,0.09788805,0.07938104135419867,0.5271418001119411,90.67783831838533,-0.5227933047076587,0.9307921867341338,0.4483899009683719
1733312799112791,0.07771423,0.07330457,-10.651536,-0.055713154,0.009051732,-0.050846837,-0.036228914,-0.039106,0.12051081,0.0752907098088694,0.5344751233047563,90.68158245565238,-0.5112914431661588,0.9166653991018924,0.4680171583810433
1733312799120791,0.0771786,0.07390162,-10.652904,-0.05597334,0.0087077245,-0.04978127,-0.03252318,-0.043000907,0.13319589,0.07106786790727945,0.5414341121447239,90.68536758141234,-0.5278552376987429,0.8698736049959618,0.4731407199954529
1733312799136791,0.07610029,0.075047456,-10.655525,-0.05646655,0.008027855,-0.04792953,-0.030825611,-0.042491823,0.115733825,0.06206209542412604,0.554238313953188,90.6928012167892,-0.5628607801970883,0.8002626130290029,0.46460221105412836
1733312799144791,0.07556286,0.075614065,-10.656782,-0.056683075,0.0076887636,-0.04699545,-0.02706563,-0.04238647,0.116759904,0.05695277156247298,0.5604307603730291,90.69658624299515,-0.6386654827066325,0.7740558024801336,0.4731282757428937
1733312799152791,0.075023375,0.07616506,-10.658009,-0.05687481,0.007338112,-0.045893338,-0.023967119,-0.043831415,0.13776402,0.05169839213837533,0.5660580409370588,90.69879341819306,-0.6567974280122065,0.7034100705037147,0.27589689973935494
1733312799168791,0.07426124,0.07726782,-10.660904,-0.05716223,0.0066216886,-0.043872338,-0.017963583,-0.044776473,0.12631248,0.041047539029674555,0.5760514775854162,90.70286586277885,-0.6656783192937981,0.6245897905223344,0.2545277866118799
1733312799176791,0.07403043,0.07781902,-10.662563,-0.05724749,0.0062618996,-0.043106146,-0.010657589,-0.044973623,0.09577395,0.035345645584339724,0.580708463132864,90.70465625125075,-0.7127366806668539,0.5821231934309729,0.22379855898712028
1733312799184791,0.07379006,0.07835453,-10.664182,-0.05732082,0.005897602,-0.042264123,-0.009166077,-0.04553719,0.10525295,0.029173287087799205,0.5851317197878746,90.70661043732835,-0.7715448120675653,0.5529070818763347,0.2442732597005955
1733312799192791,0.07354036,0.078874566,-10.665743,-0.057401624,0.005530053,-0.04127083,-0.010100658,-0.045943655,0.12416159,0.023074614314959236,0.5894277609237469,90.70869452343024,-0.7623340966049957,0.5370051419840367,0.26051076273575474
1733312799208791,0.07301428,0.07986924,-10.668743,-0.057515223,0.0047608875,-0.03913118,-0.007099937,-0.048072834,0.13372813,0.011316184730659085,0.5976454530368772,90.71263027285917,-0.7349018490187595,0.5136057570706437,0.2459843393083814
1733312799216791,0.07274439,0.08033855,-10.670185,-0.057528183,0.0043665553,-0.038163383,-0.0016200355,-0.049291525,0.12097461,0.005645542298527359,0.6013642143585592,90.7144478272763,-0.7088303040164657,0.4648451652102492,0.22719430214077127
1733312799224791,0.072466716,0.08079347,-10.671589,-0.057549115,0.003978528,-0.03714351,-0.0026165505,-0.048503395,0.12748408,0.00010184486359100763,0.604860237597443,90.71681865974485,-0.6929621793670439,0.4370029048604755,0.2963540585678455
1733312799232791,0.072181486,0.081234306,-10.6729555,-0.05755381,0.0035949403,-0.035940222,-0.0005867332,-0.047948472,0.15041092,-0.005370939271337383,0.6082731755575279,90.71903244716471,-0.6840980168660489,0.4266172450106122,0.2767234274835735
1733312799248791,0.07158983,0.08207482,-10.675574,-0.057548333,0.002799572,-0.033480726,0.00034226102,-0.04971052,0.15371852,-0.01596544454321967,0.6144384125773523,90.72317291108378,-0.662156579492643,0.385327313739027,0.2587789949412864
1733312799256791,0.07128395,0.08247466,-10.676813,-0.057556104,0.0023762425,-0.032483973,-0.0009713694,-0.052916173,0.12459419,-0.0209024731244256,0.6172878332845506,90.7250655222797,-0.6171285726507413,0.35617758839979097,0.23657639949178538
1733312799264791,0.070971586,0.082861125,-10.67802,-0.057562895,0.0019526236,-0.031416062,-0.00084890047,-0.052952364,0.13348879,-0.025445197834506054,0.6198308395624366,90.72689653516423,-0.5678405887600568,0.31787578473573513,0.22887661056461348
1733312799272791,0.07065311,0.083234504,-10.679191,-0.057549607,0.0015321512,-0.030124607,0.0016610137,-0.05255904,0.16143195,-0.02978012717824938,0.6220808787031712,90.72862514225766,-0.5418661679679155,0.28125489259183034,0.2160758866798692
1733312799288791,0.06996165,0.083997436,-10.681431,-0.05754184,0.00075768435,-0.027591756,0.00048545186,-0.04840418,0.15830317,-0.03752879387529381,0.6257505086814431,90.73027200808123,-0.4842916685652767,0.2293518736419933,0.1029291139729103
1733312799296791,0.06984001,0.08380777,-10.682224,-0.05741858,3.4189667e-05,-0.026463797,0.015407334,-0.09043683,0.14099479,-0.041202147689084936,0.627490816893279,90.73038833646582,-0.4591692267238907,0.2175385264794885,0.014541048075003466
1733312799304791,0.06970869,0.0836166,-10.682995,-0.057270847,-0.00068038446,-0.025345022,0.01846673,-0.08932176,0.13984692,-0.04495619559745286,0.6294552547867235,90.73284784963478,-0.4692559885459908,0.2455547366805668,0.3074391461189763
1733312799312791,0.06956813,0.083423845,-10.683729,-0.057132665,-0.0013911562,-0.024032554,0.017272774,-0.08884647,0.16405852,-0.048623017318295436,0.6312758771905652,90.73515697241918,-0.4583527151053217,0.22757780048021214,0.2886403480490899
1733312799328791,0.06926057,0.083033256,-10.685125,-0.05684246,-0.0027740956,-0.021470686,0.01813774,-0.08643371,0.16011669,-0.055235528374174725,0.6341220518104034,90.73961138883011,-0.41328194099245585,0.17788591373988424,0.2784010256840435
1733312799336791,0.06909422,0.082835265,-10.685789,-0.05669345,-0.0034505648,-0.020396823,0.018626451,-0.08455864,0.13423291,-0.05790849278061336,0.6346673797930802,90.74152410813265,-0.3341205508048289,0.06816599783460615,0.23908991281658162
1733312799344791,0.06891985,0.08263527,-10.686432,-0.05655177,-0.004141182,-0.019291729,0.01771003,-0.086327165,0.13813679,-0.06044302780091596,0.6349713418680694,90.74367605580525,-0.316816877537825,0.03799525937363926,0.26899345907611927
1733312799352791,0.06874437,0.082430474,-10.687052,-0.056400377,-0.0048316387,-0.01810887,0.018924009,-0.086307056,0.14785723,-0.06309775830787728,0.6348660544408442,90.74587563658122,-0.33184131337016526,-0.013160928403140548,0.27494759699460697
1733312799368791,0.068371065,0.08201435,-10.688229,-0.056111194,-0.0061558606,-0.01581256,0.018073944,-0.082763866,0.14351936,-0.06848386375872538,0.6334516917640121,90.75119693925019,-0.3366315906780059,-0.08839766730201162,0.33258141681073744
1733312799376791,0.068173856,0.081802756,-10.688775,-0.055951193,-0.006836871,-0.014835741,0.02000015,-0.08512631,0.12210244,-0.07092338541536551,0.6318811327557636,90.75367636953833,-0.3049402070800175,-0.19631987603104936,0.30992878601745155
1733312799384791,0.06796997,0.08158858,-10.689303,-0.055804793,-0.007507881,-0.013835107,0.018300023,-0.083876245,0.12507929,-0.07316945228851918,0.629747369731663,90.75613539801357,-0.28075835914420794,-0.26672037801257653,0.307378559405252
1733312799392791,0.06775968,0.08137182,-10.689812,-0.055636656,-0.008167513,-0.012846645,0.021017155,-0.082453944,0.12355775,-0.07516501771437308,0.6268858820218361,90.75846433867788,-0.24944567823173763,-0.3576859637283603,0.29111758303846735
1733312799408791,0.067320965,0.080930285,-10.690775,-0.05532431,-0.009464703,-0.010879985,0.019521685,-0.081074364,0.12291624,-0.07862543177616738,0.6192440493205414,90.76291726585943,-0.21627587886214333,-0.4776145438309147,0.27830794884648086
1733312799416791,0.06709288,0.08070538,-10.691229,-0.055180296,-0.01010999,-0.01001788,0.018001534,-0.08066091,0.1077631,-0.08003831290886218,0.6150318194160969,90.76505473012254,-0.17661014158685023,-0.5265287380555822,0.2671830328907924
1733312799424791,0.06699973,0.080404565,-10.691612,-0.05503725,-0.01075276,-0.009141863,0.017880928,-0.08034624,0.10950211,-0.08107315754407841,0.6104835070965116,90.76711032236072,-0.12935557940202905,-0.5685390399481645,0.2569490297712703
1733312799432791,0.0668971,0.080102876,-10.691971,-0.054903325,-0.011388214,-0.008215928,0.016740523,-0.0794318,0.11574186,-0.08209561510849328,0.6055847049538077,90.7684076029718,-0.12780719555185874,-0.612350267837978,0.1621600763864726
1733312799448791,0.06666511,0.07949666,-10.692642,-0.054587744,-0.012632245,-0.0064917454,0.01972378,-0.07775193,0.107761435,-0.08397703495867175,0.5946686100808426,90.77083108750058,-0.11758874063615385,-0.6822559295603223,0.15146778304793426
1733312799456791,0.066536315,0.079191975,-10.692958,-0.054443732,-0.0132378545,-0.005816685,0.018001534,-0.075701155,0.084382534,-0.08485256169094761,0.5886690362207826,90.77203938804838,-0.10944084153448337,-0.7499467325074919,0.15103756847564664
1733312799464791,0.066399306,0.07888626,-10.69326,-0.054300524,-0.013837084,-0.005104252,0.017900951,-0.07490371,0.08905411,-0.085544270651547,0.5822981114499829,90.77304952618422,-0.08646362007492508,-0.7963655963499597,0.1262672669799477
1733312799472791,0.06625424,0.07857954,-10.693549,-0.054179028,-0.01441765,-0.004277739,0.015187076,-0.07257075,0.10331411,-0.08604016070568098,0.5757759615837511,90.77427812686075,-0.06198625676674648,-0.8152687332789829,0.15357508456561023
1733312799488791,0.065940864,0.077963054,-10.694088,-0.053902227,-0.015561204,-0.0027540205,0.017300015,-0.07147214,0.09523241,-0.08760804304576832,0.5622184880985914,90.77598416961769,-0.09799264625545838,-0.847342092822477,0.10662767230857659
1733312799496791,0.0657771,0.07764784,-10.69433,-0.053749796,-0.01612103,-0.0021267608,0.019053929,-0.06997818,0.07840746,-0.08843301517076696,0.5550500239186876,90.77665271185492,-0.10312151562483085,-0.8960580224879696,0.08356777965519858
1733312799504791,0.065606356,0.077331774,-10.694562,-0.053598452,-0.016656438,-0.0014910491,0.018917955,-0.066926,0.07946396,-0.089130900767537,0.547589297681008,90.77779242098049,-0.08723569959625545,-0.9325907797099605,0.14246364069609777
1733312799512791,0.065428786,0.077014916,-10.694781,-0.05347089,-0.017178282,-0.0008620702,0.015945174,-0.065230526,0.078622356,-0.0895506772186917,0.5399634215522424,90.77885718415364,-0.0524720563943372,-0.9532345160957026,0.133095396642207
1733312799528791,0.06505382,0.07637911,-10.695189,-0.053202152,-0.018183503,0.00030588586,0.01679617,-0.06282632,0.07299725,-0.08948315158589455,0.5240181378061625,90.78095910450911,0.004220352049821571,-0.9965802341299931,0.1313700222174677
1733312799536791,0.064856894,0.07606012,-10.695378,-0.053061843,-0.018665785,0.00079355953,0.017538667,-0.060285207,0.06095921,-0.08920589376291238,0.5159169330412169,90.78166164603773,0.034657227872771215,-1.0126505956182001,0.08781769107765244
1733312799544791,0.06419754,0.07557167,-10.695866,-0.053012162,-0.019157963,0.0011372337,0.0062100585,-0.061522234,0.042959265,-0.08892005053935552,0.5079086434852355,90.7825282878681,0.035730402944607796,-1.00103619449768,0.10833022879712498
1733312799552791,0.06354413,0.075087264,-10.696328,-0.052959055,-0.019626021,0.0015541768,0.006638467,-0.058507312,0.052117884,-0.08870670670272397,0.4998651977115273,90.7832104761147,0.026667979578943145,-1.005430721713514,0.08527353082486205
1733312799568791,0.062210817,0.07413217,-10.697206,-0.052904446,-0.020556994,0.0023381903,0.0034130642,-0.05818577,0.049000844,-0.08866068610041339,0.483448660467196,90.78307196622119,0.0028762876444115046,-1.0260335777707092,-0.00865686834518886
1733312799576791,0.061552763,0.073660076,-10.697622,-0.05286896,-0.021017993,0.0026025316,0.0044358894,-0.057624884,0.033042654,-0.08858248420469916,0.4751208743916394,90.78212145913253,0.009775236964278749,-1.040973259444567,-0.11881338608251386
1733312799584791,0.06090024,0.07319147,-10.698026,-0.05283944,-0.021455752,0.0028709834,0.0036898998,-0.054719854,0.033556484,-0.08865876710800119,0.4669020114697452,90.78125974158708,-0.009535362912753734,-1.0273578652367787,-0.10771469318076102
1733312799592791,0.060253125,0.07272641,-10.698415,-0.05279591,-0.02186734,0.0033033658,0.0054412517,-0.051448584,0.05404779,-0.08887266366390743,0.4586914293526559,90.78047333983254,-0.026737069488279936,-1.0263227646361681,-0.09830021931770726
1733312799608791,0.05897445,0.07180682,-10.69915,-0.052726924,-0.022647804,0.004110169,0.004311558,-0.048778947,0.050425205,-0.09007067451059059,0.44191575314805004,90.7783334854643,-0.07487567791769734,-1.0484797627878624,-0.13374089801512037
1733312799616791,0.058342688,0.07135213,-10.699491,-0.05267803,-0.023021333,0.004359394,0.006111804,-0.046691157,0.031153088,-0.09119320093706136,0.4335742745698891,90.7771302889749,-0.14031580330884683,-1.0426848222701184,-0.15039956117497233
1733312799624791,0.05771589,0.070900686,-10.699819,-0.052619528,-0.023400601,0.0046384307,0.0073127444,-0.047408506,0.0348796,-0.0926930760584737,0.4253942262090003,90.7762004704105,-0.1874843901765408,-1.0225060451111039,-0.11622732054919838
1733312799632791,0.057097476,0.07043911,-10.700134,-0.052531026,-0.023771282,0.0050153686,0.011062714,-0.046335157,0.047117237,-0.0945821829254498,0.4173535954444482,90.77505205572561,-0.2361383583720144,-1.0050788455690107,-0.1435518356112026
1733312799648791,0.055875067,0.06952596,-10.700728,-0.052378397,-0.024445774,0.0058685513,0.009539304,-0.04215573,0.05332392,-0.09860935936256882,0.4010659002149938,90.77524180992778,-0.251698527319938,-1.0179809518409009,0.011859637635474356
1733312799656791,0.05527088,0.06907424,-10.701008,-0.05228651,-0.024779396,0.0061404402,0.011486,-0.04170276,0.033986114,-0.10113185443159947,0.39294890597697074,90.77506340535602,-0.31531188362883183,-1.0146242797528773,-0.022300571470370022
1733312799664791,0.054671317,0.06862567,-10.701276,-0.052182402,-0.025092466,0.0064214626,0.013013369,-0.03913371,0.035127796,-0.10397889209356016,0.3850525183700741,90.77500793607064,-0.3558797077450859,-0.9870484508620829,-0.006933660671736045
1733312799672791,0.05423442,0.068010375,-10.701492,-0.05202995,-0.025552237,0.0067300154,0.019056723,-0.057471447,0.038569093,-0.10710375236578572,0.377375829470701,90.77502782468953,-0.39060753402819537,-0.9595861124216398,0.002486077360766839
1733312799688791,0.053363092,0.06679595,-10.701897,-0.051678482,-0.026412548,0.0073075024,0.021966638,-0.05376944,0.03609294,-0.11399922823672445,0.3634885906757433,90.77784770575443,-0.43096724193367064,-0.8679524246848553,0.1762425665558459
1733312799696791,0.052928846,0.066196695,-10.702086,-0.051493898,-0.02682032,0.0075011333,0.02307305,-0.050971515,0.02420385,-0.11762612698889799,0.3565934319297654,90.7792953685872,-0.45336234402169245,-0.8618948432472389,0.18095785409784085
1733312799704791,0.05250968,0.06561643,-10.702269,-0.05127903,-0.02718259,0.007704615,0.02685841,-0.045283694,0.025435233,-0.12128164249585555,0.34960164004417693,90.78056527170656,-0.4569394383696943,-0.8739739856985551,0.15873788991990828
1733312799712791,0.052091535,0.06504127,-10.702443,-0.051066916,-0.027514953,0.007908634,0.026514286,-0.041545365,0.025502346,-0.12507975429274307,0.34235745202133694,90.78228616425552,-0.4747639746109417,-0.9055235028550019,0.21511156861916453
1733312799728791,0.05125889,0.06390608,-10.702769,-0.050610974,-0.028136889,0.008296095,0.028496373,-0.038870957,0.024216307,-0.1331640337840585,0.32746410346293764,90.78565950556896,-0.505267468207214,-0.9308342848999566,0.21083383209022571
1733312799736791,0.050844464,0.06334576,-10.702917,-0.05038677,-0.02844803,0.008493982,0.028025357,-0.038892727,0.024735926,-0.1372508427848453,0.3199284169129721,90.78737346766466,-0.5108511250983503,-0.9419608187456918,0.21424526196220453
1733312799744791,0.050431248,0.06279033,-10.70302,-0.05022862,-0.02864358,0.027251475,0.019768717,-0.024443723,2.3446865,-0.14082361135536658,0.31171504301437214,90.74205663312193,-0.44659607131515966,-1.026671737324996,-5.664604317840949
1733312799752791,0.050018556,0.062240787,-10.702844,-0.050074615,-0.028767738,0.060944244,0.019250903,-0.015519791,4.211596,-0.09154243816915617,0.27134113797378095,90.61875895581953,6.160146648276303,-5.046738130073895,-15.412209662800386
1733312799768791,0.049195156,0.061158482,-10.701966,-0.050014377,-0.02893888,0.09556319,0.0037648713,-0.010696355,2.163684,0.21894106170055505,0.07750891029029702,89.95425818104428,19.405218741856952,-12.114514230217747,-41.531298423453116
1733312799776791,0.048775338,0.06061908,-10.701329,-0.05029876,-0.028879402,0.11096045,-0.035548117,0.0074347476,1.9246572,0.40241647193574603,-0.018350997726067665,89.53080170027913,22.934426279398874,-11.982488502045586,-52.93206009564412
1733312799784791,0.0483522,0.06008693,-10.700563,-0.05080739,-0.028702443,0.12635955,-0.0635786,0.02211984,1.9248881,0.5996823736888407,-0.11201760166822672,89.06193241543133,24.658237719136824,-11.708325492769882,-58.608660605974414
1733312799792791,0.04792408,0.059562873,-10.699666,-0.051506504,-0.028397243,0.14174297,-0.08738925,0.038149998,1.9229277,0.81210364086962,-0.20489784090052518,88.54741243268784,26.552658397597405,-11.610029904037306,-64.31499784293716
1733312799808791,0.045720007,0.058630988,-10.697053,-0.05420186,-0.027541015,0.17266737,-0.16845971,0.053514257,1.9327745,1.2897758236892967,-0.38281029835284747,87.38263868812318,29.854511426229802,-11.119528590770141,-72.7983590352909
1733312799816791,0.04462481,0.058177378,-10.695562,-0.055925384,-0.026920984,0.18814379,-0.21544051,0.077503964,1.9345524,1.5536435889263227,-0.463518501701725,86.732688013886,32.98347065462825,-10.088525418609693,-81.2438342796472
1733312799824791,0.04353073,0.05773329,-10.69395,-0.057931613,-0.026159614,0.20362581,-0.25077862,0.09517115,1.9352528,1.8312663372127234,-0.5386576769989283,86.03757545904652,34.70284353580007,-9.392396912150419,-86.88906935493432
1733312799832791,0.042435147,0.057299737,-10.692215,-0.060190845,-0.025273087,0.21911722,-0.282404,0.11081597,1.9364263,2.1226045249118233,-0.6106724152421342,85.29728960419831,36.41727346238752,-9.001842280400737,-92.5357318560269
1733312799848791,0.040198594,0.056493856,-10.688375,-0.06564572,-0.023009194,0.25013497,-0.34092948,0.14149328,1.9386094,2.756769073611782,-0.7449399881018236,83.68058821267229,39.6352842937474,-8.391723303730585,-101.04383697037649
1733312799856791,0.03906713,0.056111004,-10.68627,-0.06885122,-0.02166066,0.2656575,-0.40068755,0.16856682,1.9403174,3.100643441255205,-0.8010808236843423,82.80461120572762,42.984295955427896,-7.017604447814836,-109.4971258680821
1733312799864791,0.037922952,0.055743072,-10.684041,-0.07236951,-0.020150924,0.28121316,-0.43978634,0.18871692,1.9444561,3.458701334484531,-0.8479581721389838,81.88398734495935,44.75723665366578,-5.8596685568301865,-115.0779825960357
1733312799872791,0.036762945,0.055391256,-10.681689,-0.07625122,-0.018490331,0.29679698,-0.48521438,0.2075741,1.9479766,3.8291259436354856,-0.8878573517700898,80.91872605303641,46.303076143869276,-4.98739745388825,-120.65766149036773
1733312799888791,0.034382444,0.054741137,-10.676613,-0.08509313,-0.0146162575,0.3280636,-0.55261934,0.2421296,1.9541643,4.6158802444060605,-0.9528042908071592,78.85392723419157,49.17214379816094,-4.0591836898168365,-129.04992617780215
1733312799896791,0.033155352,0.05444589,-10.673886,-0.09006616,-0.012362586,0.343731,-0.621628,0.2817089,1.9584223,5.0364532449871415,-0.9725717275768085,77.75502495234304,52.57162507263517,-2.470929596206175,-137.36278523106682
1733312799904791,0.031899285,0.05417275,-10.671037,-0.095410764,-0.009895795,0.3594396,-0.66807586,0.3083489,1.9635781,5.471829817930449,-0.9793070577134835,76.61215071840597,54.422071617913396,-0.8419162670843656,-142.85927924213368
1733312799912791,0.030600639,0.05391833,-10.668061,-0.10116488,-0.007223908,0.37520728,-0.7192641,0.33398587,1.9709579,5.918166986477904,-0.9743343842231854,75.42544477106414,55.792146068431904,0.6215841862872674,-148.33824341772825
1733312799928791,0.029456157,0.054539155,-10.661964,-0.11305985,-0.00075257267,0.40692738,-0.7434357,0.4044584,1.9825063,6.847460443462139,-0.9415865201017981,72.91908754553245,58.08084106151464,2.046741507586704,-156.64732659573053
1733312799936791,0.028797641,0.054874856,-10.658721,-0.11961776,0.0028750324,0.42284885,-0.8197389,0.45345062,1.9901841,7.336685416706597,-0.9109431406334086,71.59974888231122,61.15312165555728,3.830422433548685,-164.9173329026539
1733312799944791,0.0280775,0.05523086,-10.655347,-0.12661356,0.00681134,0.43883783,-0.8744746,0.49203843,1.9986218,7.841029074259945,-0.8644337876642597,70.23731491588963,63.04295719416851,5.81366912114362,-170.30424580269963
1733312799952791,0.027292453,0.05560992,-10.651842,-0.13404034,0.011041033,0.45489317,-0.9283479,0.5287116,2.0069182,8.355301585764995,-0.8014267425573366,68.83223318963343,64.28406393813114,7.8758806383653885,-175.6352157820241
1733312799968791,0.025515331,0.056448203,-10.644438,-0.15017866,0.020459138,0.4872339,-1.0086447,0.5886315,2.0212958,9.408240255778345,-0.6409399631614882,65.89187668234293,65.80866687583443,10.030423712240527,-183.77228170565692
1733312799976791,0.024517043,0.056913298,-10.640537,-0.15886949,0.025687095,0.5035305,-1.0863543,0.6534946,2.0370743,9.953918119946339,-0.5445510061704164,64.3565400258661,68.20973302099914,12.048619623883964,-191.91708205960356
1733312799984791,0.023435181,0.05740702,-10.636503,-0.16800098,0.03132687,0.519941,-1.1414363,0.704972,2.0513086,10.513585286860105,-0.43079305447583754,62.77875663219601,69.95839586422086,14.219743961822362,-197.22292420876
1733312799992791,0.022272939,0.05793939,-10.632336,-0.17756367,0.037371248,0.5364459,-1.1953357,0.75554705,2.0631177,11.081630710945397,-0.2963884162728305,61.158973735410214,71.00567801066147,16.800579775375876,-202.47286209822408
1733312800008791,0.019694878,0.05913487,-10.623594,-0.19793318,0.050802384,0.569782,-1.2730947,0.83944595,2.0835063,12.227190016897405,0.020604546735925017,57.79251685757135,71.59745662200046,19.81206018804722,-210.4035548649293
1733312800016791,0.018273305,0.059805725,-10.6190195,-0.20867433,0.05821784,0.58664733,-1.342643,0.9269318,2.108164,12.809839366729644,0.19770960939778537,56.044764046639315,72.83116872903,22.13813283273254,-218.46910136650453
1733312800024791,0.016759662,0.060530815,-10.614307,-0.21981426,0.06614729,0.6036363,-1.3924911,0.99118143,2.123624,13.402849931688149,0.3922898572900024,54.25515292659337,74.126320619813,24.322530986527127,-223.70139000574304
1733312800032791,0.015151188,0.06131461,-10.609457,-0.23130512,0.07462632,0.62078226,-1.4363582,1.0598786,2.1432414,14.00168723502437,0.6100759137811879,52.424818620621245,74.85466291702774,27.22325706139819,-228.7917882465157
1733312800040791,0.013445353,0.06216185,-10.604466,-0.2431316,0.08369038,0.63804954,-1.4783088,1.1330079,2.1584108,14.59884057457997,0.8502271113042696,50.55386767218806,74.64416744445012,30.01889969038522,-233.8688685541478
1733312800056791,0.008674899,0.06356179,-10.594082,-0.2682968,0.10353647,0.67297465,-1.5728259,1.2403805,2.182819,15.783881343325673,1.376506029142101,46.685135543361156,74.06504804660632,32.89243236486445,-241.7957580516815
1733312800064791,0.0061497777,0.06439359,-10.588676,-0.28127736,0.11439694,0.69070184,-1.6225687,1.3575581,2.2158995,16.37941819114563,1.6655247443708894,44.6714537078641,74.44210597749442,36.12733940359857,-251.71022943713194
1733312800072791,0.0035292883,0.06531549,-10.583126,-0.29445338,0.12592982,0.708598,-1.6470029,1.44161,2.237022,16.97604930716774,1.9779311029158144,42.61731451088793,74.5788895027644,39.050794818115605,-256.7673996220213
1733312800088791,-0.0020053475,0.06745183,-10.5715885,-0.32140413,0.15115938,0.7449266,-1.6844215,1.5768473,2.2705345,18.14177411857036,2.6736569730725672,38.38822459152919,72.85780071266367,43.482866884797055,-264.31811995992126
1733312800096791,-0.0049227616,0.0686778,-10.565599,-0.33509114,0.16485879,0.76338845,-1.7108767,1.7124264,2.3077352,18.705827396264613,3.0453099935613865,36.209559999391885,70.50665971178131,46.456627561102394,-272.33307401716263
1733312800104791,-0.007941752,0.070016615,-10.559461,-0.34884828,0.17930305,0.7820721,-1.7196424,1.8055327,2.335459,19.26335370915088,3.4311456132303726,33.9873228297138,69.69078911078373,48.22945245862327,-277.77964620976087
1733312800112791,-0.011062838,0.0714744,-10.55317,-0.362628,0.19453715,0.8009355,-1.7224661,1.9042622,2.3579223,19.815004775567665,3.837831755008855,31.723620108416497,68.956383302098,50.83576772231028,-282.96284016216293
1733312800128791,-0.01763629,0.074723266,-10.540145,-0.39216232,0.22972183,0.8307503,-1.8458943,2.1990426,1.8634237,20.8553567889819,4.713813487946611,27.07251971813878,65.02200083838969,54.74885830860978,-290.6937743923574
1733312800136791,-0.021122107,0.07660766,-10.533594,-0.41376567,0.25725487,0.816109,-2.700418,3.44163,-1.8301605,21.240928511257025,5.098486862859529,24.63335930486509,48.19646528439059,48.084171864114715,-304.8950516592112
1733312800144791,-0.024771292,0.078717306,-10.527159,-0.43486616,0.28602344,0.8016234,-2.6375613,3.596071,-1.8106996,21.506551568976008,5.411764820411428,22.097684767075148,33.20288221487254,39.159744693987406,-316.9593172237427
1733312800152791,-0.02857916,0.0810619,-10.520841,-0.45518675,0.31591693,0.7871555,-2.540074,3.7366858,-1.8084868,21.652429855448563,5.6627859776931535,19.472099232877962,18.234785809069493,31.377644660215665,-328.1981917746478
1733312800168791,-0.037067305,0.08692181,-10.508939,-0.49218962,0.3777477,0.76151085,-2.3126788,3.8644242,-1.6027912,21.583672264146937,5.967815441717943,13.960556494433552,-4.2973494563516255,19.064341501549347,-344.47142115277575
1733312800176791,-0.04171794,0.090436116,-10.503325,-0.5083831,0.4092406,0.75024396,-2.0241847,3.936611,-1.4083608,21.399271866864513,6.018852533524127,11.078194980121124,-23.050049660302754,6.379636475772943,-360.29518928905344
1733312800184791,-0.04647562,0.094192676,-10.4977865,-0.52272934,0.4408126,0.73982054,-1.7932801,3.946498,-1.3029276,21.13000773198264,6.013104435608631,8.122154381352763,-33.658016860233964,-0.718512239436984,-369.50507484604526
1733312800192791,-0.05133599,0.09818673,-10.492316,-0.5350926,0.4722628,0.7303049,-1.5454068,3.9312763,-1.1894554,20.77863283028155,5.952069560967574,5.097029572391625,-43.92186271263686,-7.629359330132158,-378.1406011201421
1733312800208791,-0.06126993,0.106895424,-10.481556,-0.55370307,0.5341157,0.71311015,-1.1631548,3.8658044,-1.0746717,19.869945143731808,5.6565829557914995,-1.158405428315197,-56.79298040935876,-18.467912823504626,-390.9646875441764
1733312800216791,-0.06631096,0.11160291,-10.476259,-0.55984205,0.5641351,0.7053562,-0.7673725,3.7524252,-0.969246,19.33500116688666,5.425706495145553,-4.374659468278328,-66.86799710564351,-28.859557580743378,-402.0317549953914
1733312800224791,-0.07137949,0.11653861,-10.471013,-0.5639046,0.5933162,0.69808954,-0.5078167,3.6476402,-0.90833,18.75617929960048,5.139690400041041,-7.644519784783386,-72.35273341077232,-35.75201188806399,-408.73253956313215
1733312800232791,-0.076459125,0.12169525,-10.465812,-0.56586045,0.6214649,0.6913024,-0.24448334,3.5185888,-0.8483901,18.14287280662675,4.797855479955973,-10.964911667024474,-76.66331162171632,-42.72936501063346,-415.04898528013604
1733312800248791,-0.086587645,0.13263491,-10.455534,-0.5637567,0.67395186,0.6790766,0.13148412,3.2804346,-0.7641129,16.836668418252263,3.9558014811726885,-17.74173153911877,-81.63777427340557,-52.628374923955285,-423.55124200589347
1733312800256791,-0.091605805,0.13839646,-10.450452,-0.5598245,0.6979912,0.6735154,0.49152222,3.004916,-0.695154,16.149344208683424,3.454106601633914,-21.193389565234536,-85.9155261961046,-62.711859942346805,-431.45725326447075
1733312800264791,-0.09656813,0.14437021,-10.445402,-0.5539939,0.7205524,0.6683954,0.72883064,2.820149,-0.63999736,15.450471700024613,2.8970806409370553,-24.68421011787018,-87.35906358235135,-69.62824508710735,-436.3525690794555
1733312800272791,-0.10146494,0.15051067,-10.440385,-0.5464503,0.74127626,0.6635956,0.9429454,2.5904849,-0.5999729,14.750546831649654,2.2906107690108772,-28.24339555413014,-87.49060854686981,-75.80873399077224,-444.89817953249496
1733312800288791,-0.111011885,0.16323169,-10.430433,-0.5268294,0.7767481,0.6550757,1.226306,2.216991,-0.532493,13.350309413152415,0.966671733732925,-35.453239639183195,-87.51483865607746,-82.74618970487202,-450.6152553158161
1733312800296791,-0.11599757,0.17072032,-10.424846,-0.51535404,0.79207766,0.6514699,1.434423,1.9161924,-0.4507303,12.65610052713291,0.2470132758536706,-39.103290456191836,-86.77611075243816,-89.9573072349068,-456.25635212607966
1733312800312791,-0.12561469,0.18594311,-10.413777,-0.4893244,0.8158044,0.64538026,1.6268529,1.4829226,-0.3806017,11.351785967628421,-1.2958408987887748,-46.5156810447248,-81.5196599690306,-96.42838591515284,-463.27441178331054
1733312800320791,-0.13023247,0.19364151,-10.408291,-0.4751411,0.82410336,0.64293635,1.7729102,1.0373666,-0.3054887,10.74861117139599,-2.097628193179646,-50.26172430339274,-75.39684952905397,-100.2234117988589,-468.25540733349163
1733312800328791,-0.13471645,0.20137362,-10.402831,-0.4604694,0.83001417,0.6409141,1.8339641,0.73885167,-0.2527833,10.174464698164185,-2.9210261251667125,-54.03570675272199,-71.76830915397545,-102.92474149838331,-471.7478061661572
1733312800336791,-0.13906719,0.20908616,-10.397404,-0.4458015,0.83316505,0.6393524,1.8334873,0.39386,-0.19521265,9.635489728093386,-3.7734578502008653,-57.83984964367468,-67.37187125884996,-106.55396562926911,-475.5178613690857
1733312800344791,-0.14328486,0.21679074,-10.391994,-0.43104157,0.83391005,0.63836366,1.844991,0.0931248,-0.12359022,9.136064485472234,-4.645056155558363,-61.637328331883936,-62.42815532764399,-108.94978816968718,-474.6848360261571
1733312800352791,-0.14736973,0.22446887,-10.3866,-0.41634184,0.8322838,0.6378731,1.8374659,-0.20328163,-0.061318275,8.686013148530312,-5.531240727223365,-65.46525661540178,-56.25641711774003,-110.77307145812519,-478.4910354397302
1733312800368791,-0.15514922,0.23967424,-10.375833,-0.38792604,0.8221475,0.6385047,1.7759874,-0.6335191,0.039473172,7.907251373182514,-7.316552936626903,-73.21348155300485,-48.67261095923744,-111.58201308772115,-484.26405860019185
1733312800376791,-0.1588518,0.2471667,-10.370452,-0.374576,0.8137463,0.6396613,1.6687549,-1.0501518,0.14457852,7.577937495761463,-8.217110138764676,-77.13716739906623,-41.16423467763139,-112.56965026722165,-490.46073075767185
1733312800384791,-0.1624374,0.25456345,-10.365067,-0.3620569,0.80326,0.64140624,1.5648863,-1.3107805,0.21811573,7.302733848409809,-9.116554034327887,-81.09558896676273,-34.40045591895677,-112.43048694540126,-494.802695962063
1733312800392791,-0.16591349,0.2618488,-10.359681,-0.35049742,0.79075736,0.6436857,1.4449357,-1.5628337,0.28493255,7.0887748330373,-10.000441328012657,-85.0892134674633,-26.744876921563574,-110.48591171059645,-499.2030625875701
1733312800408791,-0.17249416,0.27615607,-10.348861,-0.3297735,0.7611385,0.65003484,1.2952461,-1.8511786,0.39682162,6.84320095521637,-11.700852687000838,-93.22531710138406,-15.348367363808112,-106.27570993676126,-508.50647712004803
1733312800416791,-0.17564724,0.28309435,-10.343417,-0.3214118,0.74384594,0.6540553,1.0452121,-2.1615698,0.50255656,6.812042237712308,-12.523204562443691,-97.37290215552297,-3.894839688007743,-102.79398443035666,-518.4481317673634
1733312800424791,-0.17873733,0.29018617,-10.337276,-0.31425282,0.7253301,0.658812,0.8948706,-2.3144782,0.59458613,6.847392246071166,-13.325363722808607,-101.56294996252126,4.418751044857209,-100.26989504561439,-523.7559758747874
1733312800432791,-0.18175882,0.2971022,-10.331119,-0.30864775,0.7054853,0.6641514,0.70063394,-2.4806037,0.66742295,6.953131624860752,-14.099771392471952,-105.80486037121253,13.217422348698246,-96.80095870791824,-530.2388010864078
1733312800448791,-0.18764904,0.31037086,-10.31873,-0.30243054,0.6624891,0.6767628,0.3885757,-2.6872604,0.7882155,7.334272898293381,-15.527333188611685,-114.41655640482524,23.8213295895393,-89.22261225873326,-538.2310021007946
1733312800456791,-0.19054586,0.31670874,-10.312504,-0.30195263,0.63968426,0.6839279,0.05973875,-2.850607,0.89563423,7.596383864104841,-16.1771181290221,-118.78710159943604,32.7638707264325,-81.22311755130195,-546.3181493263501
1733312800464791,-0.19343,0.32284123,-10.306239,-0.30333185,0.6162358,0.69165426,-0.1724027,-2.9310582,0.96579635,7.908908723163886,-16.78010275809912,-123.20003492320228,39.06560738238063,-75.3730786346273,-551.6166654707804
1733312800472791,-0.19632052,0.32876328,-10.29993,-0.3065973,0.5923252,0.6999719,-0.40818003,-2.9888227,1.0397061,8.275325790209589,-17.32574306003046,-127.65388781960701,45.80213338071286,-68.205037741418,-556.7316120505907
1733312800488791,-0.20217144,0.33997017,-10.287158,-0.31874195,0.5438753,0.7181368,-0.7590409,-3.0281208,1.1353046,9.152476707654424,-18.211936004300526,-136.67287359002538,54.821932340302226,-55.387059016878915,-563.6866106511476
1733312800496791,-0.2051618,0.34525403,-10.280687,-0.32751024,0.51966554,0.72792214,-1.0960362,-3.026217,1.2231692,9.650771188989447,-18.55485940600579,-141.23666296095115,62.28681016687786,-42.865425213158176,-570.4736713657243
1733312800504791,-0.20821483,0.35032654,-10.274154,-0.33806723,0.4956759,0.73816705,-1.3196244,-2.9987059,1.2806132,10.186494609493774,-18.83718479067899,-145.83609948766488,66.9654275630409,-35.290673084150036,-574.9295658392157
1733312800512791,-0.21134503,0.3551905,-10.2675705,-0.35037047,0.47205755,0.7488064,-1.537904,-2.9522924,1.3299211,10.758204237657097,-19.056801918274537,-150.4690013249656,71.4637035204152,-27.452140949443102,-579.1127296625908
1733312800528791,-0.21789171,0.3643097,-10.2541895,-0.37985864,0.42653432,0.7713637,-1.8430109,-2.8452015,1.4098285,11.972487748330039,-19.28296032166999,-159.82041797715738,75.89271941705893,-14.134900212215852,-584.4635407619859
1733312800536791,-0.22133407,0.36857644,-10.247383,-0.396907,0.40490887,0.78321815,-2.1310449,-2.7031822,1.4818087,12.589368761750487,-19.28453599928476,-164.5314235135721,77.11012667755608,-0.19695970184630196,-588.8756920518389
1733312800544791,-0.22543553,0.37131983,-10.241051,-0.41626164,0.38312072,0.79519814,-2.4193301,-2.7235186,1.4974996,13.20427482165553,-19.214263922125376,-169.2617000848793,76.86325748813022,8.78400964492305,-591.2845714133991
1733312800552791,-0.22967611,0.37390718,-10.23462,-0.4369217,0.36242974,0.8074782,-2.5825052,-2.5863721,1.5350058,13.81082449736403,-19.077770120324786,-173.9624445648195,75.81870946356246,17.061725225073552,-587.593059992523
1733312800568791,-0.23861554,0.37864825,-10.221459,-0.48162702,0.3246431,0.8327553,-2.794083,-2.3616645,1.579821,15.01689391054523,-18.577579118049268,176.6057476592488,75.37933832382502,31.261937642220026,-589.4879859957313
1733312800576791,-0.24333188,0.380821,-10.214739,-0.50537825,0.3076947,0.8457276,-2.9689035,-2.11855,1.6215369,15.598084805694082,-18.21701068680035,171.88240427656794,72.64886189360655,45.07105390611449,-590.4179228351097
1733312800584791,-0.24822265,0.38287538,-10.207912,-0.5299111,0.29213262,0.8588501,-3.0666068,-1.9452608,1.6403123,16.152523503413928,-17.794621099917165,167.1554892623082,69.30483721498085,52.79869836039809,-590.8643767824656
1733312800592791,-0.25329408,0.3848221,-10.200981,-0.55510384,0.27799645,0.87210935,-3.149092,-1.7670206,1.657404,16.676748165542328,-17.318586586375844,162.42513601156114,65.5280827660498,59.50431419266527,-591.2941563433845
1733312800608791,-0.26399934,0.3884371,-10.186796,-0.606978,0.25417477,0.8990077,-3.2421348,-1.488855,1.6811452,17.621400290782738,-16.204141186386167,152.96577376551207,59.04075782752554,69.65283749935485,-591.2101403780673
1733312800616791,-0.26964208,0.3901236,-10.179542,-0.63341767,0.24451573,0.91261613,-3.304958,-1.2073796,1.7010568,18.026742772313984,-15.5597604338464,148.24365296395385,50.667810191405856,80.54759406747085,-590.2651001947779
1733312800624791,-0.27548084,0.391748,-10.172177,-0.6600011,0.23636061,0.9262134,-3.322929,-1.0193902,1.6996561,18.377150484678264,-14.862589961714098,143.53080921925024,43.800964045535046,87.14630901653753,-589.1054680879505
1733312800632791,-0.28151682,0.39332178,-10.16472,-0.68661284,0.22969244,0.939781,-3.326468,-0.83352065,1.6959532,18.672916206586372,-14.122925188145457,138.82284972849834,36.97071523851345,92.4580966960803,-588.4949363439857
1733312800648791,-0.29417884,0.3963632,-10.149476,-0.739292,0.22081664,0.9669451,-3.2924488,-0.5547376,1.6977563,19.12046564873426,-12.546698639988659,129.4156308773474,27.97184013424302,98.51415925979983,-587.9511781969329
1733312800656791,-0.30080193,0.3978532,-10.141692,-0.7651875,0.21849473,0.98045754,-3.2369344,-0.2902392,1.689054,19.2709438852378,-11.715609848410006,124.71622203350661,18.809779562942204,103.88609894733159,-587.4261054801016
1733312800664791,-0.30761626,0.39933667,-10.1338,-0.79060316,0.21751103,0.99398565,-3.1769571,-0.12296251,1.6910135,19.360283876367596,-10.861455543292205,120.01864537180198,11.167498891224742,106.76928813972505,-587.1970827130782
1733312800672791,-0.31494287,0.4005678,-10.125925,-0.81604326,0.21747601,1.0073762,-3.180012,-0.004377216,1.6738175,19.380534041322125,-9.993792789763496,115.31996464157562,2.5312706193163046,108.4578441910888,-587.3350912782947
1733312800688791,-0.33012113,0.4031412,-10.109844,-0.86464024,0.22119376,1.0341127,-3.037311,0.23235938,1.671031,19.224817423900554,-8.254285186912876,105.9160708168669,-9.732288588848192,108.71922517816374,-587.7433640442949
1733312800696791,-0.33796865,0.4044733,-10.101654,-0.8877215,0.22477843,1.0473565,-2.8851552,0.4480835,1.6554742,19.062502648205594,-7.383222085809634,101.20314128732512,-20.289346961869835,108.8828876379052,-589.1161911927234
1733312800704791,-0.34597966,0.4058469,-10.093354,-0.9098848,0.22937508,1.0605276,-2.7704163,0.5745813,1.6463845,18.84661670918524,-6.511665460072572,96.48523394070409,-26.985742377544373,108.94457821713279,-589.7384183276284
1733312800712791,-0.35414708,0.40726927,-10.084946,-0.93110627,0.23487641,1.073602,-2.6526823,0.6876662,1.6342996,18.572454403164468,-5.647492174137842,91.75855455725366,-34.270288252596686,108.02166074184133,-590.8349229313037
1733312800728791,-0.3709199,0.41028664,-10.067807,-0.9703882,0.24831772,1.0993997,-2.455119,0.8400818,1.6123577,17.844954336011007,-3.9972970239949697,82.2596616405756,-45.46875419709132,103.13719688392948,-593.6808072923789
1733312800736791,-0.37950855,0.41189292,-10.059078,-0.9883338,0.2560744,1.1121782,-2.2432058,0.969585,1.597315,17.401800453798895,-3.229612965436182,77.48202424633996,-55.394235276514,95.9605073198484,-597.2046742794541
1733312800744791,-0.38822013,0.41357076,-10.050244,-1.0051038,0.26442516,1.124925,-2.0962505,1.0438449,1.5933512,16.912266490055114,-2.498633913901281,72.68655040787174,-61.1917454679724,91.37238144186261,-599.4342298085282
1733312800752791,-0.397071,0.41532245,-10.041321,-1.0207243,0.2732511,1.1375958,-1.9525586,1.103241,1.5838443,16.37580749080349,-1.800493845204608,67.87466117088906,-67.05737490645326,87.26750858708417,-601.4861546228364
1733312800768791,-0.41507682,0.41906318,-10.02316,-1.0483423,0.2919085,1.1628046,-1.7261281,1.1660885,1.5755519,15.162085565273046,-0.5252463426838982,58.20554501946638,-75.8576203456527,79.70296890754436,-604.319759463917
1733312800776791,-0.42421293,0.42105582,-10.013923,-1.0602921,0.30154222,1.1753261,-1.4937221,1.2042149,1.565188,14.497222266247107,0.028087873426227584,53.33869749031691,-83.10791237824226,69.16677701376574,-608.3559411436838
1733312800784791,-0.43342516,0.42313108,-10.004582,-1.071024,0.3112656,1.1877952,-1.3414769,1.2154206,1.5586315,13.808814744416589,0.5151568836466304,48.448830634496076,-86.05094022881484,60.88362627755034,-611.2333569776036
1733312800792791,-0.44270417,0.4252891,-9.995139,-1.080534,0.32100165,1.2002944,-1.188755,1.2170076,1.5624015,13.102729258990319,0.9372880457823329,43.53757791731126,-88.2606856782837,52.76639526696282,-613.9065896481028
1733312800808791,-0.46352014,0.43025282,-9.97573,-1.0972631,0.3403949,1.2255654,-1.0455698,1.212079,1.5794411,11.6295240827538,1.5957839581680937,33.65819592362883,-92.0753235147824,41.155994524110056,-617.4613746051517
1733312800816791,-0.47396237,0.43284833,-9.96589,-1.1038525,0.34975535,1.2382052,-0.8236765,1.1700541,1.57997,10.861389135932235,1.8253434129265667,28.69152588383398,-96.01686835269554,28.69493184480911,-620.8337549743561
1733312800824791,-0.4844017,0.43550387,-9.955948,-1.1092734,0.3587858,1.2508738,-0.67761534,1.1288077,1.5835761,10.085019405519283,1.9807812057956455,23.707077170873315,-97.04621630161922,19.429724108634872,-623.0560891200829
1733312800832791,-0.494845,0.4382294,-9.945903,-1.1135849,0.36740687,1.2635547,-0.5389303,1.0776333,1.5851109,9.316871353399085,2.0610062179318946,18.704806781276726,-96.01850651502457,10.028126517031113,-625.2837986995739
1733312800848791,-0.51571274,0.44387498,-9.925501,-1.1190262,0.38307637,1.2892759,-0.34008172,0.97934335,1.6075745,7.842148227916117,2.0115299538293394,8.657623758801737,-92.17019534268555,-3.0922665064096817,-627.9489389046868
1733312800856791,-0.52612287,0.44678617,-9.915142,-1.1202825,0.39003617,1.3023046,-0.15704332,0.86997443,1.6285925,7.133630485127177,1.8851592030989268,3.6154497617032786,-88.56471784861755,-15.796343841301606,-630.2717496373073
1733312800864791,-0.53650826,0.44974965,-9.904676,-1.1206238,0.39634398,1.3154078,-0.04266202,0.7884763,1.6378908,6.442127077998058,1.6864454923278902,-1.438315609566413,-86.43792589113986,-24.839213846379565,-631.7206714087114
1733312800872791,-0.5468629,0.4527599,-9.894123,-1.1201073,0.40190086,1.3287716,0.06456673,0.6946101,1.6704797,5.774924158220232,1.4130274131831555,-6.502947481457694,-83.40036497222822,-34.17725989309184,-633.0789839864102
1733312800888791,-0.5674572,0.4588948,-9.872685,-1.116719,0.41051155,1.3558278,0.21176784,0.53816843,1.6910135,4.567620015253669,0.6675153472150906,-16.66023803091873,-75.45650893541016,-46.59450412300405,-634.8306593413147
1733312800896791,-0.57769495,0.4620161,-9.861799,-1.1139897,0.41355073,1.369651,0.34116206,0.37989762,1.7278938,4.045311596297344,0.2159420644801736,-21.750880901738004,-65.28855236954072,-56.44666034186463,-636.3303588524093
1733312800904791,-0.5878819,0.46515715,-9.8508,-1.1106752,0.41564873,1.3837084,0.41431186,0.26224926,1.7571746,3.5772834251370837,-0.28210657549575274,-26.85051911236479,-58.503521395032465,-62.25607999699079,-637.4547763283483
1733312800912791,-0.5980144,0.46831048,-9.8396845,-1.106843,0.41681415,1.3979636,0.4790276,0.14567748,1.7819105,3.1615236495403463,-0.8304517467225696,-31.95922235807166,-51.96997194959219,-68.5431464033521,-638.5879057133589
1733312800928791,-0.6184648,0.47476923,-9.818,-1.0981823,0.4164534,1.4271146,0.54129213,-0.022547318,1.821935,2.50504370428509,-2.0863322828772892,-42.21125959510014,-41.02999657845354,-78.49253350966997,-640.7523273142798
1733312800936791,-0.6285937,0.47798586,-9.806976,-1.0933902,0.41469073,1.4421151,0.5990118,-0.22033228,1.8750577,2.279655464255445,-2.7766826798294315,-47.35627498130924,-28.17353000370557,-86.29379961901782,-643.1269232761383
1733312800944791,-0.6386566,0.48118278,-9.795816,-1.0883921,0.41184497,1.4574001,0.624761,-0.3557205,1.9106268,2.1274449662483117,-3.4873135620377225,-52.51468066373155,-19.0263122508917,-88.82886027603634,-644.8007103027883
1733312800952791,-0.6486533,0.48435146,-9.784519,-1.0832841,0.40792647,1.4729764,0.6384998,-0.4898123,1.9470452,2.045216971080503,-4.207859890314004,-57.687822924260516,-10.278499395976086,-90.06829103453518,-646.6427825661203
1733312800968791,-0.66848433,0.49054265,-9.761501,-1.0731286,0.39699936,1.5049633,0.63472235,-0.6829444,1.999177,2.0870807593890834,-5.6795747949804625,-68.09236346718562,2.616486769286294,-91.98218154165367,-650.2837839328188
1733312800976791,-0.678303,0.4935642,-9.749779,-1.06824,0.38995025,1.5212898,0.6110668,-0.88113916,2.0408182,2.2200625714857933,-6.43425679985682,-73.32850499960631,16.62272651208871,-94.33525060954472,-654.5176915525867
1733312800984791,-0.68805987,0.49652532,-9.737911,-1.0636176,0.38186264,1.538004,0.5778074,-1.0109506,2.0892768,2.433476395928242,-7.192597592033215,-78.58815188595703,26.676728055306064,-94.79259902204923,-657.4558607938403
1733312800992791,-0.6977579,0.49941775,-9.725914,-1.0593119,0.37270877,1.5550629,0.53821504,-1.1442341,2.1323562,2.7246134546016756,-7.939131685881378,-83.87307394825022,36.39213233417922,-93.3167617310205,-660.6152577866497
1733312801008791,-0.71699226,0.50496423,-9.701465,-1.0520715,0.3514734,1.5901936,0.45252588,-1.327211,2.195671,3.503054160252929,-9.346377593395419,-94.5237179572186,48.65254410320333,-87.95286921962756,-665.6652505605227
1733312801016791,-0.72653794,0.5076034,-9.68901,-1.0493205,0.3394896,1.6081799,0.34387407,-1.4979727,2.2482872,3.9786338192335826,-10.00020811971423,-99.89150048705699,59.44745737258169,-81.72881578985138,-670.9728162297992
1733312801024791,-0.73604333,0.5101439,-9.676397,-1.0472846,0.32665014,1.6264355,0.25448203,-1.6049333,2.2819488,4.516689703956232,-10.620329146139785,-105.28916102338626,67.2569855903312,-77.5151283031942,-674.7075670411587
1733312801032791,-0.74551,0.51258427,-9.663627,-1.0460235,0.31305727,1.6450042,0.15763937,-1.6991086,2.3210793,5.122939503685778,-11.201252731163033,-110.71745711965175,75.7812249661932,-72.61544812790606,-678.5370120331879
1733312801048791,-0.76399094,0.51677126,-9.637232,-1.0459602,0.28363287,1.683276,0.0039562583,-1.8390249,2.391994,6.521012945583971,-12.204401585534912,-121.66710325689321,87.3795901186371,-62.696803398242494,-684.3528835775905
1733312801056791,-0.773029,0.5185145,-9.623633,-1.0472711,0.267943,1.7028958,-0.16386805,-1.9612348,2.452463,7.281789069137669,-12.61190415654936,-127.18294017686993,95.0970154442122,-50.93782137680592,-689.4796149970906
1733312801064791,-0.78207225,0.52013963,-9.609877,-1.0496128,0.25181043,1.722828,-0.2927035,-2.0165703,2.4915338,8.065437223772387,-12.955535487043996,-132.7258360943372,97.95601932933977,-42.95391631182951,-692.8619896834081
1733312801072791,-0.79112935,0.5216434,-9.595959,-1.0530673,0.23535052,1.7429725,-0.43182072,-2.057489,2.5180576,8.868917825970962,-13.23594900999828,-138.2943066568669,100.43507527482181,-35.05169036928535,-696.0588203162106
1733312801088791,-0.8093219,0.5242778,-9.567632,-1.0634711,0.20185171,1.784072,-0.65023446,-2.0936754,2.5687215,10.546216193865144,-13.582905055709665,-149.49710778393208,104.83114799338644,-21.68475285696165,-700.1750704415745
1733312801096791,-0.8184763,0.5254062,-9.55322,-1.0704547,0.18504272,1.8049845,-0.87295467,-2.1011233,2.6140509,11.411218626011657,-13.632592681641459,-155.12331487338537,108.12530401831393,-6.210953241474172,-703.2758861816624
1733312801104791,-0.8276878,0.52640235,-9.538638,-1.0786134,0.16830815,1.8260866,-1.0198355,-2.0918212,2.6377735,12.27392475260033,-13.597861019816602,-160.76135943498275,107.83826582358425,4.341457728107132,-704.7555701996707
1733312801112791,-0.83696,0.5272734,-9.52391,-1.0879347,0.15180215,1.8473724,-1.1651665,-2.06325,2.6607213,13.11716976759801,-13.487013202293532,-166.4077425388215,105.40562687471004,13.85597719038357,-705.7978879798471
1733312801120791,-0.84630233,0.5280215,-9.509008,-1.0984043,0.1356619,1.8687959,-1.3086944,-2.0175314,2.6779323,13.931311222403087,-13.309152623082833,-172.06340046680546,101.76768185063449,22.232572401337546,-706.9572409979916
1733312801136791,-0.8652335,0.52916276,-9.478686,-1.12272,0.10498197,1.9121884,-1.5197321,-1.9174957,2.7120335,15.46258646922321,-12.755354488091552,176.6099196428984,95.70470292625775,34.61238343695499,-707.9174931435102
1733312801144791,-0.87484,0.52956504,-9.4632635,-1.1364956,0.09063012,1.9340391,-1.7219483,-1.7939805,2.731338,16.173298066805216,-12.365458861931039,170.9494412323481,88.83894969775068,48.73695327006415,-707.5598013187887
1733312801152791,-0.8845517,0.5298625,-9.447664,-1.1512473,0.07709385,1.9559758,-1.843959,-1.6920342,2.7420816,16.834010264566928,-11.896303455626771,165.29690200056126,82.58902472021411,58.64442578803356,-706.5674039733543
1733312801168791,-0.9034949,0.5301285,-9.414845,-1.1830511,0.05269114,2.0002234,-1.9877403,-1.5251691,2.7654765,17.964319638268993,-10.76734521879145,154.01540364194346,70.64433585637906,70.55988980220756,-705.0936474136125
1733312801176791,-0.9127663,0.5300978,-9.397683,-1.1999179,0.041981082,2.0224764,-2.1083503,-1.338757,2.7816293,18.42738664780374,-10.139049689952433,148.382767231151,57.883376191843226,78.53694110487713,-704.0795513490563
1733312801184791,-0.92218715,0.5299921,-9.38037,-1.2173859,0.03242383,2.0447395,-2.183497,-1.1946563,2.782881,18.82312789113378,-9.478927950510865,142.7584962433514,49.46765541625488,82.51521743019602,-703.0338734749525
1733312801192791,-0.9317611,0.52982074,-9.362905,-1.2353115,0.0241113,2.0669947,-2.2407024,-1.0390663,2.7818975,19.148395438186803,-8.78247645684297,137.14132436481512,40.6584433816281,87.05643670848691,-702.1464848170332
1733312801208791,-0.95137805,0.5293207,-9.327517,-1.2721106,0.0113319745,2.1113193,-2.299942,-0.79870784,2.7702897,19.553489711459676,-7.273889431608831,125.93827162990694,25.318392079554574,94.28668907713367,-700.1907959317623
1733312801216791,-0.9614236,0.5290123,-9.309593,-1.2906935,0.0069154184,2.1333063,-2.3228674,-0.5520695,2.74837,19.62220242505855,-6.480200393963801,120.34941704630934,8.58908919985925,99.21112970562871,-698.6068229496991
1733312801224791,-0.9716268,0.52867883,-9.291518,-1.3092079,0.003787576,2.1551106,-2.3142993,-0.39098027,2.7255414,19.60670953169627,-5.682204955756587,114.76297587932729,-1.936611670284832,99.74942977590166,-698.3051458727567
1733312801232791,-0.9819861,0.5283303,-9.273325,-1.3275158,0.0019727002,2.1767273,-2.2884905,-0.22685947,2.702087,19.516539958137287,-4.892768890401922,109.17509675329357,-11.271196694873044,98.67950816933318,-698.4848907542136
1733312801248791,-1.0031346,0.52759725,-9.236485,-1.3629863,0.0021104526,2.219644,-2.2169054,0.008609524,2.6822982,19.123926390295445,-3.3539157864537685,97.99355325166528,-24.53834799011521,96.17831899675961,-698.846468851769
1733312801256791,-1.0139292,0.52724814,-9.217837,-1.3799007,0.0040106336,2.2409334,-2.114296,0.2375226,2.6611683,18.80983998186941,-2.6051598944563126,92.40121517856005,-39.260801053254546,93.59448649968195,-699.0422591381523
1733312801272791,-1.0359311,0.5266299,-9.180094,-1.4115461,0.011081789,2.2829332,-1.9778385,0.44194716,2.6249883,17.92914098532951,-1.1850804823962766,81.20603364716848,-55.04368728374351,88.75496325375225,-699.6988457119734
1733312801280791,-1.0471247,0.5263768,-9.160999,-1.4260546,0.016058832,2.303565,-1.8135606,0.62213045,2.5789735,17.38316485877082,-0.5383087883344976,75.59729018061601,-68.24701581983675,80.84646175772238,-701.0929333190576
1733312801288791,-1.0584363,0.52617025,-9.141759,-1.4395425,0.02185033,2.324032,-1.6859918,0.7239373,2.5583801,16.787523222199138,0.055636168401279544,69.97912396507739,-74.45520457146021,74.24311959197213,-702.2707769423284
1733312801296791,-1.0705066,0.525386,-9.122187,-1.4524627,0.028067552,2.3444748,-1.6150175,0.77715254,2.5553403,16.150176252832086,0.5945888846731443,64.35190889074077,-79.66837117088144,67.3690895339831,-703.4018842920763
1733312801304791,-1.0826662,0.5246729,-9.102473,-1.4642259,0.0349249,2.3648198,-1.4704018,0.8571683,2.5431213,15.46977387633622,1.07693664899901,58.71745576651944,-85.05029706198319,60.293470540733196,-704.3066405276674
1733312801312791,-1.0949116,0.5240423,-9.082618,-1.4747921,0.042270266,2.3849766,-1.3207792,0.91817087,2.5196073,14.740176806982516,1.4996423478649603,53.07531161087063,-91.19963366921274,52.83821235824381,-705.2680194561013
1733312801328791,-1.119603,0.5230157,-9.042485,-1.4922006,0.057935484,2.4248674,-1.0880306,0.9790761,2.493173,13.145779061044465,2.136871796698866,41.76804596516692,-99.64985912112824,39.82684055211912,-706.7041028564818
1733312801336791,-1.1320292,0.52262217,-9.022209,-1.498976,0.06599948,2.4445462,-0.84692234,1.0079993,2.459854,12.31129746492824,2.34116451206987,36.10330846953274,-104.31019951452824,25.536589421375453,-708.0921869542727
1733312801344791,-1.1444952,0.5223085,-9.001796,-1.5044544,0.07404766,2.4641097,-0.6847977,1.0060229,2.4454296,11.476329250639719,2.470096814404955,30.433270706368837,-104.37102678606514,16.1165377918856,-708.7547203954878
1733312801352791,-1.1569914,0.52207357,-8.981277,-1.508671,0.081946686,2.4836216,-0.5270839,0.9873779,2.4389923,10.649458559991047,2.5264238546430406,24.759976435148285,-103.35883633108388,7.04088002976073,-709.1617839025689
1733312801368791,-1.1820349,0.5218298,-8.939825,-1.5135411,0.096894994,2.5224683,-0.30437857,0.93426925,2.4279206,9.014608241356765,2.416690605829863,13.407721390120333,-102.1781449146426,-6.858328050823596,-709.515940314247
1733312801376791,-1.194564,0.52181417,-8.918889,-1.5142684,0.10370187,2.5418622,-0.09091198,0.85085905,2.42424,8.206846460671175,2.242576807361231,7.72988817550101,-100.97022258569889,-21.76422480857905,-709.7291518274153
1733312801384791,-1.2070615,0.52182835,-8.897816,-1.5138963,0.10987809,2.5611792,0.04650652,0.7720282,2.414614,7.41890817201081,1.987497173880023,2.0520017042291254,-98.49228608254548,-31.88495418515098,-709.7358089089855
1733312801392791,-1.2195446,0.52190185,-8.876602,-1.5125012,0.11535777,2.5804887,0.17438827,0.68495977,2.41369,6.668604735844875,1.6579901180927237,-3.624455553105803,-93.78792952074195,-41.18838197341239,-709.5571571668661
1733312801408791,-1.2444377,0.5222003,-8.833754,-1.5070528,0.12390825,2.6193495,0.34052876,0.534405,2.4287999,5.33018389818876,0.8128431491553274,-14.968319954860517,-83.65130235350718,-52.82168555858727,-708.9915251096696
1733312801416791,-1.2568349,0.52241075,-8.812156,-1.5031703,0.12686078,2.638837,0.4853159,0.36906636,2.4359524,4.746480314869853,0.30621388598358196,-20.63617117350258,-72.96294791486338,-63.32865789646818,-708.4814023302577
1733312801424791,-1.2691057,0.52299994,-8.791112,-1.4987315,0.12923558,2.658281,0.55484474,0.29684976,2.4304986,4.216819373729855,-0.2579669779455241,-26.30255912873425,-66.20761764249966,-70.52260799113824,-708.2984944039587
1733312801432791,-1.2813354,0.5236073,-8.769905,-1.4937193,0.13060096,2.6778512,0.6265193,0.1706723,2.446264,3.7439429857825317,-0.8822664950728448,-31.974194718038675,-59.109548493415474,-78.0374396409151,-708.9544486630533
1733312801448791,-1.3056566,0.524842,-8.727001,-1.4824448,0.13010074,2.7172952,0.70466095,-0.031263568,2.465248,3.005940696832317,-2.2745304169796827,-43.3213940701026,-46.12514305938842,-87.01649511917736,-709.1999595039952
1733312801456791,-1.3177512,0.52545536,-8.705302,-1.4763921,0.12819034,2.737277,0.7565766,-0.2388004,2.4977326,2.7599556178180498,-3.014058965410503,-48.99941780869501,-30.748134876783386,-92.44106855385257,-709.7529673240508
1733312801472791,-1.3417832,0.526621,-8.661435,-1.4640175,0.121002905,2.7778559,0.7734149,-0.44921458,2.5361774,2.522263254561633,-4.531745564120407,-60.375973767600144,-14.855772703526057,-94.85541241936902,-711.0347474315713
1733312801480791,-1.3537203,0.5271554,-8.639265,-1.4578965,0.115781434,2.798378,0.76512986,-0.65268385,2.5652645,2.523811980050479,-5.308283186077514,-66.07959246206016,0.19359068610572883,-97.06720274463832,-712.9523368075016
1733312801488791,-1.3656056,0.5276459,-8.616923,-1.4519358,0.1094519,2.8190544,0.7450878,-0.791192,2.5845466,2.604063876253267,-6.095739802301724,-71.7972933896165,10.031487025348538,-98.43207702802626,-714.7126159445418
1733312801496791,-1.377441,0.52808356,-8.59441,-1.4462502,0.10206613,2.8399491,0.7106959,-0.92322093,2.6118455,2.7660786680776615,-6.885360166464976,-77.53150327452431,20.25184897804931,-98.70254552040657,-716.7762356134772
1733312801504791,-1.3892292,0.52846,-8.571724,-1.4409558,0.09362563,2.861071,0.6618052,-1.0550627,2.640247,3.0125359081316465,-7.661658206175811,-83.28413640053739,30.80715500674814,-97.03725496385421,-719.0791407516354
1733312801512791,-1.4009736,0.5287669,-8.548863,-1.4361277,0.084172145,2.8824577,0.6035119,-1.1816853,2.6733277,3.3432456193161535,-8.40788034164381,-89.05700348955104,41.33871389806335,-93.27776693349998,-721.6083861267059
