timestamp,x,y,z,vx,vy,vz,ax,ay,az,roll,pitch,yaw,roll_rate,pitch_rate,yaw_rate
1733312869429918,0.10434629,0.12919632,-9.34575,0.024202075,-0.061139643,-0.20053641,0.0,0.0,0.0,-0.5725669729433623,-0.32582312384772877,89.64087760985537,0.0,0.0,0.0
1733312869445918,0.1048353,0.12708135,-9.34886,0.025064122,-0.060849804,-0.19817355,0.05387794,0.018114923,0.14767888,-0.5738711308479469,-0.356836975582374,89.63892293488934,-0.08150986903653397,-1.9383657334153244,-0.12216718537710175
1733312869453918,0.10508204,0.12604374,-9.350405,0.02548195,-0.060657505,-0.19708599,0.052228566,0.024037434,0.13594516,-0.5740297119724983,-0.37177423427247036,89.63827342049849,-0.019822640568919248,-1.86715733626205,-0.08118929885630609
1733312869461918,0.105330385,0.1250194,-9.351941,0.025906652,-0.060443304,-0.19599614,0.05308771,0.026775056,0.136232,-0.574020585069564,-0.38641351776594546,89.63790398557434,0.0011408628667769673,-1.8299104366843837,-0.04617936551804863
1733312869469918,0.10558035,0.12400837,-9.353473,0.026311146,-0.060192928,-0.19492237,0.050561734,0.031297095,0.13422035,-0.5739657632760283,-0.40074503355182667,89.63782139703723,0.00685272419196358,-1.7914394732351577,-0.010323567140192492
1733312869485918,0.10645545,0.12154218,-9.35585,0.027320918,-0.059820455,-0.19231197,0.063110724,0.02327957,0.16315001,-0.5729042593515824,-0.4278752544842412,89.63765278239161,0.06634399527786904,-1.6956388082759062,-0.010538415350279039
1733312869493918,0.10707431,0.12009168,-9.35671,0.02790778,-0.05969868,-0.19104448,0.073357716,0.015222001,0.15843658,-0.5720228094344761,-0.4402491376052226,89.63753262659151,0.11018123963828018,-1.5467353901226752,-0.015019475013867592
1733312869501918,0.10768763,0.11866512,-9.357578,0.028503329,-0.05953732,-0.18978363,0.07444364,0.020169651,0.15760584,-0.5707081131801084,-0.45195478247861837,89.63854642397348,0.1643370317959734,-1.4632056091744707,0.12672467274713753
1733312869509918,0.10829575,0.11726228,-9.358454,0.029086228,-0.05934236,-0.18853308,0.07286248,0.024370382,0.15631877,-0.5691150532183953,-0.4631158809030415,89.63959433277847,0.19913249521413728,-1.3951373030528949,0.13098860062439907
1733312869525918,0.10949698,0.11452664,-9.360233,0.030201798,-0.058868635,-0.18601453,0.069723114,0.029607674,0.15740934,-0.5645711799770351,-0.4842500089685917,89.64241427898126,0.28399207758501477,-1.3208830040968873,0.17624663767378956
1733312869533918,0.11009051,0.1131932,-9.361136,0.030756177,-0.058601517,-0.18489663,0.06929738,0.033389777,0.1397375,-0.561700010140598,-0.4945759775283562,89.64418629671515,0.35889622955462813,-1.2907460699705624,0.2215022167364528
1733312869541918,0.110679716,0.11188218,-9.362046,0.03131663,-0.058319446,-0.18380207,0.07005664,0.03525894,0.1368206,-0.5585137385895808,-0.5047048928739971,89.64626562081445,0.3982839438771581,-1.2661144182051165,0.2599155124124895
1733312869549918,0.11126478,0.11059339,-9.362962,0.03185662,-0.05798661,-0.18272896,0.067498535,0.041604504,0.13413839,-0.5549433020677997,-0.5144890456133882,89.64819131116506,0.44630456522263523,-1.2230190924238773,0.24071129382727227
1733312869565918,0.1124117,0.10808494,-9.364811,0.03289941,-0.057245553,-0.18069428,0.065174416,0.046316065,0.12716743,-0.5458269263695165,-0.5332550278005239,89.65280775106335,0.569773481142699,-1.1728738866959818,0.2885274936422994
1733312869573918,0.1129738,0.106864914,-9.365745,0.033378232,-0.056817397,-0.17990977,0.05985284,0.05351938,0.098064534,-0.5406145187082771,-0.54258163526983,89.65484614057253,0.6515509576549153,-1.1658259336632704,0.25479868864891575
1733312869581918,0.113532364,0.105666354,-9.366685,0.033862628,-0.056358393,-0.1791103,0.060549468,0.05737552,0.09993277,-0.5349728274912889,-0.5518411260495648,89.65725002338937,0.7052114021235325,-1.1574363474668397,0.30048535210355115
1733312869589918,0.11408761,0.10448896,-9.36764,0.0343421,-0.055896472,-0.17832883,0.059933864,0.057740133,0.097684555,-0.5290308027206069,-0.5609017991735886,89.65975632850545,0.7427530963352497,-1.1325841405029826,0.31328813951149914
1733312869605918,0.11518849,0.10219667,-9.369566,0.0352372,-0.054891445,-0.1767385,0.055943847,0.06281421,0.099395394,-0.5159268171612124,-0.578629524630441,89.66494319800135,0.8189990974621567,-1.1079828410532728,0.32417934349383387
1733312869613918,0.11522983,0.10140412,-9.370953,0.03543646,-0.0542243,-0.17611457,0.02490729,0.08339295,0.077990815,-0.508273012030971,-0.5870669523684092,89.66765441974351,0.9567256412801817,-1.0546784672460332,0.33890271776843467
1733312869621918,0.11527908,0.100624785,-9.3723345,0.035628024,-0.05353856,-0.17543828,0.023945699,0.08571753,0.08453614,-0.4997940757518039,-0.5955274993352215,89.67166353316415,1.0598670348958827,-1.0575683708515415,0.501139177580082
1733312869629918,0.11533602,0.09985858,-9.373712,0.035805874,-0.05285335,-0.17482577,0.022231134,0.085651405,0.07656403,-0.49101903267920294,-0.604066931011276,89.67573411320105,1.096880384075119,-1.0674289595067894,0.5088225046130072
1733312869645918,0.11549699,0.09837024,-9.376453,0.03617203,-0.051421735,-0.17343327,0.02288469,0.08947588,0.087031156,-0.4733666296100185,-0.6205340167140524,89.68349619993053,1.1032751918240262,-1.0291928564235342,0.4851304205926203
1733312869653918,0.11558783,0.097645715,-9.377819,0.03634784,-0.050689947,-0.1728937,0.021976417,0.091473565,0.06744638,-0.4648253158791504,-0.6279406758806051,89.68712630567474,1.0676642163585197,-0.9258323958190791,0.45376321802614966
1733312869661918,0.115685165,0.096934274,-9.379181,0.03649941,-0.049949113,-0.17231111,0.01894636,0.09260419,0.07282384,-0.4564767214985365,-0.6347748017813747,89.69080419754799,1.0435742975767288,-0.8542657375962031,0.45973648415671386
1733312869669918,0.11578864,0.09623599,-9.380537,0.03662578,-0.04917848,-0.17158382,0.015796162,0.09632902,0.09091198,-0.448021647428147,-0.6412488884771468,89.69464608696283,1.0568842587986917,-0.809260836971516,0.48023617685465403
1733312869685918,0.116012976,0.09487893,-9.383232,0.03688345,-0.047619715,-0.17017597,0.01610443,0.09742285,0.08799042,-0.4306645521536989,-0.6532594219354289,89.7027295167336,1.0848184546530066,-0.750658341142625,0.5052143606725796
1733312869693918,0.11613338,0.0942201,-9.384572,0.03697669,-0.046829373,-0.16959697,0.011655035,0.09879283,0.07237494,-0.42251948090982006,-0.6588985930436089,89.70685833573131,1.0181339054848573,-0.7048963885225026,0.516102374714416
1733312869701918,0.11624979,0.09357373,-9.385907,0.037068322,-0.046029124,-0.16897921,0.01145387,0.100031026,0.07721968,-0.4150786266230882,-0.6638769053267253,89.71111020089371,0.930106785841479,-0.6222890353895495,0.5314831453000952
1733312869709918,0.1163712,0.092940405,-9.387244,0.037150092,-0.045224488,-0.16829696,0.010221264,0.100579575,0.0852812,-0.4078715422134221,-0.6682585009423351,89.7142999373833,0.9008855512082635,-0.5476994519512333,0.3987170611983922
1733312869725918,0.11662823,0.09171301,-9.3899,0.037293147,-0.043567814,-0.16679567,0.00894093,0.10354211,0.09383074,-0.3941403148267568,-0.6754179918808961,89.72060768701994,0.8582017116665789,-0.44746818366006313,0.3942343522899791
1733312869733918,0.11708387,0.09103154,-9.390786,0.037488516,-0.042808708,-0.16605708,0.024421139,0.09488826,0.09232386,-0.3878388088543588,-0.6784107840971276,89.72377696270516,0.787688246549757,-0.3740990270289399,0.3961594606530455
1733312869741918,0.117536545,0.09036439,-9.391678,0.037661277,-0.04205063,-0.16526712,0.02159504,0.09475974,0.0987444,-0.3819420801863828,-0.6811079915061028,89.72583973545193,0.7370910834969983,-0.3371509261218909,0.25784659334526516
1733312869749918,0.11798632,0.08971151,-9.392574,0.037844755,-0.04126427,-0.16438037,0.022934748,0.09829504,0.11084414,-0.37647791361200295,-0.6833358583211041,89.72804593621194,0.6830208217974811,-0.2784833518751673,0.27577509500201725
1733312869765918,0.11887753,0.0884485,-9.394387,0.038176227,-0.03968518,-0.16267431,0.020717036,0.09869318,0.10662898,-0.36623226586851104,-0.6860728251762421,89.73243793201678,0.6403529839682434,-0.1710604284461238,0.27449973780223796
1733312869773918,0.119315155,0.08784079,-9.395305,0.03829936,-0.038896892,-0.16193691,0.015391502,0.09853578,0.09217485,-0.3613116058669995,-0.686997795240156,89.73468523280808,0.6150825001889438,-0.1156212579892456,0.28091259891183123
1733312869781918,0.119749986,0.08724689,-9.396226,0.038417537,-0.038097396,-0.16119424,0.014772172,0.09993696,0.09283423,-0.35657876233086205,-0.687797678629658,89.73777268302038,0.5916054420171822,-0.09998542368774914,0.3859312765380145
1733312869789918,0.12018203,0.086666524,-9.397151,0.03851603,-0.03731865,-0.16043562,0.012311618,0.09734323,0.09482726,-0.3520164467154979,-0.6883606228607898,89.74072350669965,0.5702894519205166,-0.0703680288914725,0.3688529599092572
1733312869805918,0.12103818,0.08554577,-9.399013,0.038722787,-0.035733413,-0.15900539,0.012922333,0.09907735,0.089389265,-0.34383367136928805,-0.6889537182198913,89.74676530660481,0.5114234591381174,-0.03706845994383664,0.3776124940731651
1733312869813918,0.121462524,0.08500509,-9.399949,0.038812876,-0.0349458,-0.15847337,0.011261086,0.0984515,0.06650202,-0.3398242559908372,-0.6888302856453736,89.74990060443923,0.501176922306354,0.01542907181470468,0.39191222930113984
1733312869821918,0.121884435,0.08447736,-9.400889,0.038894523,-0.034143202,-0.15787575,0.0102058975,0.100324854,0.07470325,-0.3356117513786627,-0.68834536055542,89.75256803474714,0.5265630765218059,0.06061563624419728,0.33342878848942553
1733312869829918,0.12230395,0.08396247,-9.401844,0.03896895,-0.033344325,-0.15724398,0.009303447,0.09985966,0.07897056,-0.33110021076544827,-0.6876331552689333,89.75549845793468,0.5639425766518091,0.08902566081083049,0.3663028984425886
1733312869845918,0.123129785,0.08296534,-9.403762,0.03907214,-0.031754263,-0.15586227,0.0064494084,0.09937887,0.08635688,-0.3222045336931699,-0.6858959746345736,89.76105192397269,0.5559798170173981,0.10857378964748034,0.34709162737493454
1733312869853918,0.12353631,0.08248288,-9.404725,0.03913033,-0.030955002,-0.15538764,0.007273629,0.09990762,0.05932897,-0.3182447461579696,-0.6847493813294567,89.76431365780176,0.49497344190003983,0.14332416313961072,0.4077167286354238
1733312869861918,0.12437732,0.08192336,-9.405519,0.03934546,-0.030206528,-0.154813,0.026891006,0.093559265,0.071829185,-0.3142893707686611,-0.68341809324461,89.76741145519158,0.4944219236635592,0.1664110106058492,0.38722467372626657
1733312869869918,0.12520638,0.081377834,-9.406319,0.03955668,-0.029447103,-0.15414488,0.026402527,0.09492808,0.08351541,-0.310328856142782,-0.6818198222708013,89.77002429078804,0.49506432823489027,0.1997838717260831,0.3266044495585411
1733312869885918,0.12682982,0.080328174,-9.407949,0.039921388,-0.027935477,-0.1529042,0.022794351,0.09447662,0.07754285,-0.30138466260057717,-0.6779777838037192,89.77507919104653,0.5590120963878,0.24012740419263046,0.31593126615502176
1733312869893918,0.12762474,0.07982369,-9.408781,0.040080033,-0.027163142,-0.15240757,0.01983065,0.09654182,0.062078234,-0.296980267626255,-0.675997210857306,89.77754178737528,0.550549371790269,0.2475716183016507,0.30782454109551893
1733312869901918,0.12840872,0.0793326,-9.409617,0.040230107,-0.02640541,-0.1518971,0.018759165,0.09471643,0.063808635,-0.2929092845819605,-0.6738932598914394,89.77996676018444,0.5088728805368105,0.2629938707333173,0.3031216011426653
1733312869909918,0.1291821,0.07885462,-9.41046,0.040376578,-0.025648877,-0.15134732,0.01830887,0.094566725,0.06872229,-0.28900131420643604,-0.6714708303835432,89.78241914469918,0.4884962969405611,0.3028036884870398,0.3065480643436723
1733312869925918,0.1307203,0.07791886,-9.41216,0.04064726,-0.024180707,-0.15022257,0.016917707,0.09176065,0.07029716,-0.28063458348758674,-0.6662737161449079,89.78790781812927,0.522920669928083,0.324819639914704,0.3430420893802883
1733312869933918,0.13147435,0.07747001,-9.413017,0.040780738,-0.023443004,-0.14979951,0.016684644,0.0922128,0.052882355,-0.27642531670824816,-0.6637143572601836,89.79152821289765,0.5261583474173243,0.31991986059054245,0.4525493460483825
1733312869941918,0.13221869,0.077033706,-9.41388,0.040904745,-0.022703193,-0.14935447,0.015500932,0.09247637,0.055629756,-0.27198464233867864,-0.6611612433353311,89.79498120474162,0.5550842961961872,0.319139240606559,0.43162398049573986
1733312869949918,0.13295354,0.076609805,-9.414761,0.041007716,-0.021947617,-0.14885864,0.012871343,0.09444705,0.061979514,-0.2671836228459791,-0.6588442681034964,89.79830783990214,0.6001274365874434,0.28962190397933546,0.41582939506489797
1733312869965918,0.13439538,0.07579877,-9.4165325,0.04118176,-0.020452326,-0.14781913,0.010877847,0.09345566,0.06496906,-0.2571709850014521,-0.6541303811004494,89.80484498107975,0.6257898652829378,0.2946179376904399,0.4085713236010816
1733312869973918,0.13510276,0.0754112,-9.417425,0.04124969,-0.019718079,-0.14743073,0.008490868,0.0917809,0.048549842,-0.25220038898542785,-0.6518032699083134,89.80818186451901,0.6213245020030317,0.2908888990170029,0.41711042990782526
1733312869981918,0.13580897,0.07503002,-9.418322,0.041325003,-0.019010471,-0.1470647,0.009414274,0.08845096,0.04575401,-0.24682029574470396,-0.6492947212381786,89.81143333962606,0.6725116550904858,0.3135685837668531,0.40643438838153584
1733312869989918,0.13628124,0.07469626,-9.419279,0.041359615,-0.018288556,-0.14667287,0.004326459,0.09023933,0.04897825,-0.24102196913787025,-0.646924867508155,89.81401544757568,0.7247908258542142,0.29623171625293193,0.3227634937011827
1733312870005918,0.1372183,0.07405979,-9.421214,0.04135738,-0.016852107,-0.14585984,-0.00013969839,0.089778095,0.05081482,-0.22863266676644672,-0.642343228141486,89.81847602814626,0.7743313982139695,0.2863524604168175,0.27878628566114755
1733312870013918,0.13768288,0.07375687,-9.422193,0.04134026,-0.016132263,-0.14553319,-0.0021397136,0.08998042,0.04083104,-0.2224071263950191,-0.6401756278993219,89.82087023340814,0.7781925464284511,0.2709500302705114,0.2992756577350595
1733312870021918,0.1381448,0.07346399,-9.423173,0.041311484,-0.015414576,-0.14517502,-0.0035972332,0.08971092,0.044770535,-0.21607630487939156,-0.6380166735675834,89.82290584209493,0.7913526894534442,0.26986929146731553,0.25445108584845216
1733312870029918,0.13860396,0.07318106,-9.424156,0.041255996,-0.014712937,-0.14472724,-0.0069360244,0.08770485,0.055972483,-0.20962408597058635,-0.6357929894414965,89.82482193481917,0.8065273636006519,0.27796051576084996,0.23951159053043067
1733312870045918,0.13951367,0.07264447,-9.426126,0.041128673,-0.013315087,-0.14387713,-0.007957686,0.08736562,0.05313195,-0.19669438358421842,-0.6311094345906935,89.82860966411027,0.8081063991479945,0.2927221781751942,0.23673308069451385
1733312870053918,0.13995908,0.07239237,-9.427113,0.04103511,-0.012620772,-0.1435552,-0.011695548,0.08678936,0.040242445,-0.19002883517187444,-0.628710612562278,89.83073408342304,0.8331935515429991,0.2998527535519307,0.265552414094203
1733312870061918,0.14040151,0.07214977,-9.4281025,0.040944498,-0.0119126765,-0.14318623,-0.011326279,0.08851196,0.046120953,-0.18342021692279153,-0.6262918334846141,89.83338784948428,0.8260772811353634,0.3023473847079874,0.3317207576556039
1733312870069918,0.14084102,0.07191652,-9.429108,0.04085859,-0.011229276,-0.14281294,-0.010738614,0.085425094,0.04666112,-0.1770585723052144,-0.6236268339574966,89.83590160637372,0.7952055771971422,0.3331249408896823,0.3142196111809183
1733312870085918,0.141711,0.07147742,-9.431121,0.04063582,-0.009890182,-0.14195058,-0.013923039,0.083693355,0.053897496,-0.16478298373740902,-0.618376351246289,89.84069002357538,0.7672242854878367,0.3281551694504797,0.2992760751033476
1733312870093918,0.14214124,0.07127121,-9.432128,0.0404943,-0.009227186,-0.14159122,-0.017690007,0.08287443,0.044919547,-0.15877356831286135,-0.6156529222022435,89.84295444813809,0.7511769280684574,0.34042863050568095,0.28305307033886357
1733312870101918,0.14256811,0.071073815,-9.433137,0.04032598,-0.008565612,-0.14120746,-0.021039972,0.08269678,0.04797056,-0.15287810781477337,-0.6126687585092558,89.84508569313829,0.7369325622609966,0.373020461623458,0.2664056250239981
1733312870109918,0.14332163,0.07109801,-9.434366,0.0403705,-0.0077702957,-0.14082378,0.0055651176,0.09941455,0.047959384,-0.14715054488432205,-0.6098147509687734,89.84721691730404,0.7159453663064169,0.3567509425603142,0.26640302071903327
1733312870125918,0.14481345,0.0711737,-9.436825,0.04040528,-0.006168421,-0.14003304,0.002173707,0.10011717,0.04942156,-0.13704673624590633,-0.6049124274199698,89.85190283547591,0.6314880399009822,0.30639522180022766,0.2928698857423269
1733312870133918,0.14554492,0.07121862,-9.438054,0.040409088,-0.005376196,-0.13975893,0.0004759058,0.0990281,0.034263358,-0.1323940031946902,-0.602481278734669,89.85328610878355,0.5815916314020182,0.30389358566260394,0.17290916345393736
1733312870141918,0.146267,0.071268275,-9.439279,0.040399175,-0.004591081,-0.13944773,-0.0012391246,0.09813939,0.03889948,-0.12797369984960905,-0.5997914769017432,89.854594236,0.5525379181351413,0.3362252291157194,0.16351590205701919
1733312870149918,0.14697982,0.071322694,-9.440497,0.040383615,-0.0038140118,-0.1390063,-0.0019450671,0.09713362,0.055178996,-0.12321458776468114,-0.5968211965244428,89.85586479400536,0.594889010615989,0.3712850471625411,0.15881975066894574
1733312870165918,0.14837827,0.07144599,-9.442919,0.040291883,-0.0022633704,-0.13797489,-0.0057332213,0.09691508,0.064463355,-0.11310477678641981,-0.5904291837698646,89.85810538831171,0.6318631861413331,0.39950079716113723,0.14003714414774837
1733312870173918,0.149064,0.07151487,-9.44412,0.04022494,-0.001504351,-0.13761055,-0.008367933,0.09487742,0.04554167,-0.1081941551944557,-0.5871978000497335,89.8591676450304,0.6138276989955136,0.4039229650163784,0.13278208983443615
1733312870181918,0.14974102,0.07158866,-9.445318,0.040162608,-0.0007342419,-0.1371528,-0.007791444,0.09626363,0.057218593,-0.10281017163042792,-0.5837330057084079,89.86006936626458,0.6729979455034723,0.4330992926657112,0.11271515427441127
1733312870189918,0.1504042,0.07165773,-9.446523,0.040071446,1.6738297e-05,-0.13659129,-0.011395196,0.093872525,0.07019006,-0.0974854222839199,-0.5799526212418858,89.8610189082976,0.665593668313502,0.47254805831525637,0.1186927541254164
1733312870205918,0.15170497,0.07181103,-9.448912,0.039827198,0.0014919516,-0.13543828,-0.01526554,0.09220083,0.07206295,-0.08751375742736747,-0.5715528787332036,89.8674056654822,0.6232290535345272,0.5249839067926385,0.39917232403824043
1733312870213918,0.15234269,0.0718952,-9.450097,0.03968599,0.0022183778,-0.13493277,-0.017650891,0.090803266,0.063188374,-0.0824378855910814,-0.5670792041433712,89.87075613126257,0.6344839795357595,0.5592093237290476,0.41880822254566896
1733312870221918,0.15297212,0.071984336,-9.451277,0.039540153,0.0029367174,-0.13435583,-0.018229708,0.089792445,0.072117895,-0.07742795198918885,-0.5626038787446808,89.87380950346368,0.6262417002365684,0.5594156748363122,0.38167152513775104
1733312870229918,0.1535935,0.07207842,-9.45245,0.039407447,0.0036426648,-0.13373695,-0.016588252,0.08824342,0.07735938,-0.0725744031060031,-0.5577778526246894,89.87694138384761,0.6066936103982183,0.6032532649989281,0.39148504799204636
1733312870245918,0.1543003,0.073018804,-9.454591,0.03898082,0.0055011534,-0.13225545,-0.02666423,0.116155535,0.092593946,-0.06281145872811264,-0.547589991403778,89.88460202249284,0.6101840236181535,0.6367413263069597,0.47878991532728077
1733312870253918,0.15465203,0.07348589,-9.455662,0.03876291,0.0064065387,-0.13160406,-0.027238855,0.11317315,0.08142366,-0.05818985128010934,-0.542333015913585,89.88942106382001,0.5777009310004132,0.6571219362741213,0.6023801658962279
1733312870261918,0.15501428,0.07394813,-9.456727,0.03855331,0.007299652,-0.13093147,-0.026199965,0.11163914,0.08407421,-0.053680928229214414,-0.5368660608112684,89.89422298750804,0.5636153813618658,0.6833693877895706,0.6002404610035474
1733312870269918,0.15537503,0.07440863,-9.457787,0.03831546,0.008167418,-0.13020174,-0.029731074,0.10847073,0.09121559,-0.049069259483709715,-0.5310483546349761,89.89906592303338,0.5764585931880867,0.7272132720365403,0.6053669406671481
1733312870285918,0.1560916,0.07532482,-9.459888,0.037846405,0.009853237,-0.12867156,-0.029315937,0.10536372,0.09563658,-0.04007927087036623,-0.5181501222992806,89.90853999597616,0.5618742883339678,0.8061395209809682,0.5921295589239669
1733312870293918,0.15644708,0.07578067,-9.460931,0.037584912,0.010684938,-0.1280096,-0.03268663,0.1039626,0.08274428,-0.03580642629420292,-0.5112253117429827,89.91317457698909,0.5341055720204136,0.8656013195372456,0.5793226266163628
1733312870301918,0.15680045,0.07623524,-9.461968,0.03731171,0.011500648,-0.12734395,-0.0341502,0.10196375,0.083206214,-0.031754353358427696,-0.5040755305881373,89.91781254750855,0.5065091169719033,0.8937226443556819,0.5797463149321663
1733312870309918,0.15715161,0.07668861,-9.4630165,0.03704089,0.01230425,-0.12664089,-0.033852644,0.10045023,0.087883316,-0.0280348982788251,-0.49651379601747553,89.92238562404945,0.46493188495032417,0.9452168213327102,0.5716345676130229
1733312870325918,0.15784699,0.07759181,-9.465094,0.03646938,0.013834886,-0.12520821,-0.035719246,0.095664755,0.089542,-0.0209814784676578,-0.48031472009809,89.93092727524605,0.4408387381979564,1.012442244961595,0.5338531997870881
1733312870333918,0.15818754,0.078034945,-9.466123,0.03616722,0.014565313,-0.12455898,-0.037770253,0.09130337,0.08115451,-0.01720393516416942,-0.47172972978732947,89.93515539280624,0.4721929129360475,1.0731237888450695,0.5285146950230347
1733312870341918,0.15852538,0.07847709,-9.467147,0.035841983,0.015286415,-0.12389491,-0.040654555,0.090137705,0.08300877,-0.013753755244822133,-0.4628696658891125,89.9403944039224,0.4312724899184109,1.1075079872771203,0.6548763895211357
1733312870349918,0.1588604,0.07891836,-9.468165,0.035514567,0.015984463,-0.123200774,-0.040926967,0.087255955,0.08676666,-0.01063571159920845,-0.45374498828719473,89.94533286083058,0.38975545570171055,1.1405847002397194,0.6173071135221005
1733312870365918,0.15870398,0.079799354,-9.468675,0.034422882,0.017231729,-0.121396266,-0.068230316,0.07795414,0.11278176,-0.00452501052453132,-0.43480691898458207,89.95505605987076,0.38191881716732057,1.1836293314132917,0.6076999400111789
1733312870373918,0.15863365,0.08023742,-9.46896,0.03386887,0.017824132,-0.12056399,-0.069251284,0.07405039,0.10403431,-0.0014228262816188217,-0.4250373656778611,89.95995008468162,0.3877730303640623,1.2211941633401184,0.6117531013589196
1733312870381918,0.15856811,0.08067384,-9.469257,0.033314027,0.018395487,-0.119717106,-0.06935559,0.0714194,0.105860636,0.0014520802706589307,-0.4150487459962324,89.96475188671526,0.3593633190347191,1.2485774602035817,0.6002252542038864
1733312870389918,0.15850705,0.08110863,-9.469566,0.032753974,0.018943481,-0.11889447,-0.07000659,0.06849924,0.10282918,0.004020320395275761,-0.40503540555579837,89.96930094553478,0.3210300155771038,1.2516675550542598,0.5686323524402418
1733312870405918,0.15843302,0.08197765,-9.470218,0.0317218,0.020011406,-0.11741446,-0.06451085,0.066745326,0.09250081,0.00744027131018052,-0.3847107877580366,89.97658900045977,0.21374693218154747,1.270288612360113,0.4555034328116889
1733312870413918,0.15840158,0.082409546,-9.47056,0.031194434,0.020515088,-0.11681439,-0.065920874,0.0629602,0.07500872,0.008528446832089002,-0.37431570548129595,89.97907185224446,0.13602194023856018,1.2993852845925808,0.31035647308721853
1733312870421918,0.15837346,0.08283971,-9.470915,0.0306603,0.021009278,-0.11620914,-0.06676675,0.06177369,0.07565599,0.009498557057267945,-0.3641190885429571,89.98155811834084,0.12126377814736783,1.2745771172923535,0.31078326204785733
1733312870429918,0.15834828,0.0832681,-9.471302,0.030113868,0.0214713,-0.115524665,-0.06830389,0.057752706,0.085559666,0.010322800410959393,-0.35391031663034617,89.98401705481157,0.10303041921143102,1.2760964890763686,0.3073670588407598
1733312870445918,0.1583059,0.08411951,-9.472105,0.02904632,0.022399943,-0.11424813,-0.06672181,0.058040254,0.0797836,0.00966282791265823,-0.3342051056245653,89.9876815432956,-0.04124828114382258,1.2315756878613042,0.22903053025153491
1733312870453918,0.15828829,0.084542714,-9.472521,0.028521044,0.022842512,-0.113803595,-0.065659404,0.055321023,0.055566426,0.00845182753956705,-0.32462878199752965,89.98937546988456,-0.15137504663639773,1.197040453379456,0.21174082362025456
1733312870461918,0.15827289,0.08496402,-9.472946,0.028003974,0.023239648,-0.113363855,-0.06463379,0.049642053,0.054967586,0.00687064730079213,-0.3150756530802879,89.99087814433946,-0.19764752984686504,1.1941411146552174,0.1878343068624587
1733312870469918,0.15826178,0.08538062,-9.473381,0.027465051,0.023635505,-0.11290333,-0.067365356,0.049482096,0.057565976,0.004730773512582597,-0.30538240533127253,89.99213492611574,-0.26748422352619156,1.211655968626921,0.15709772203426958
1733312870485918,0.15790746,0.08623376,-9.474148,0.02628864,0.024356639,-0.112073675,-0.073525704,0.045070887,0.051853243,-0.0011037162902450433,-0.285748391699813,89.995392980298,-0.3646556126767275,1.2271258519662207,0.20362838639188752
1733312870493918,0.1575714,0.08666944,-9.474484,0.025626114,0.024703354,-0.11181928,-0.08281576,0.043339327,0.031799078,-0.004405042957702063,-0.27641792083952677,89.99681709523489,-0.4126658334321275,1.1663088575357767,0.17801436711028104
1733312870501918,0.15724379,0.087102324,-9.4748335,0.02498412,0.025020525,-0.1115058,-0.080249265,0.0396464,0.039185397,-0.007751442076191688,-0.2672400710080658,89.99829926454889,-0.4182998898112032,1.1472312289326214,0.18527116424987816
1733312870509918,0.15692444,0.087532334,-9.475194,0.02438615,0.025328094,-0.11114639,-0.07474609,0.03844616,0.044926066,-0.011501248498584402,-0.2581321848216279,89.9996789778753,-0.4687258027990892,1.138485773304737,0.17246416580184443
1733312870525918,0.15630955,0.08838383,-9.475951,0.02317479,0.02590051,-0.1104586,-0.075710006,0.03577594,0.042987052,-0.019818002442497946,-0.2402937763715702,90.00183050662652,-0.5197971214945964,1.1149005281286064,0.13447054695111632
1733312870533918,0.15601338,0.08880538,-9.476347,0.022591375,0.026153296,-0.11035812,-0.072926976,0.031598378,0.012559815,-0.024556258003115457,-0.23149641815052155,90.00259549323191,-0.5922819450771888,1.0996697776310813,0.0956233256745271
1733312870541918,0.15574247,0.08920977,-9.476756,0.022050954,0.02637468,-0.11021059,-0.06755255,0.027673084,0.018441118,-0.029371557480413334,-0.22299335271671844,90.0030394570047,-0.6019124346622349,1.0628831792253894,0.05549547159779593
1733312870549918,0.15547848,0.08961144,-9.4772005,0.02151461,0.026598794,-0.109919876,-0.06704312,0.028014181,0.036339276,-0.03485450230830217,-0.2147959586447176,90.00497241208323,-0.685368103486104,1.0246742590001066,0.2416193848178045
1733312870565918,0.15497044,0.09040643,-9.478119,0.020469936,0.02696934,-0.10932829,-0.06529211,0.023159081,0.036973972,-0.04709551129876285,-0.1990532303872328,90.00828506928218,-0.7650630619037926,0.9839205160927993,0.2070410749333954
1733312870573918,0.15472595,0.090799645,-9.478593,0.019991638,0.027128922,-0.10926016,-0.05978718,0.019947764,0.008516945,-0.05363403416699356,-0.19134615760926169,90.00984918728248,-0.8173153585288391,0.963384097246389,0.19551475003874588
1733312870581918,0.15448773,0.09118996,-9.479077,0.019511644,0.027283667,-0.109147936,-0.05999929,0.019343104,0.01402758,-0.06031224056562511,-0.1837102453564709,90.01107862282437,-0.8347757998289441,0.9544890315988495,0.1536794427360065
1733312870589918,0.15425545,0.09157738,-9.479572,0.01903505,0.027404439,-0.10900979,-0.059574142,0.015096505,0.017268583,-0.06678762258957233,-0.17642067662092575,90.01217828445144,-0.8094227529934014,0.9111960919431421,0.1374577033838275
1733312870605918,0.15380818,0.09234334,-9.480614,0.018137509,0.027648581,-0.10855184,-0.05609635,0.015258905,0.02862187,-0.08064143731598376,-0.1632265874693615,90.01379020756129,-0.8658634204007146,0.8246305719727656,0.10074519436475957
1733312870613918,0.15316828,0.09244718,-9.481411,0.017609127,0.027620992,-0.10863086,-0.066047765,-0.0034486873,-0.009877606,-0.08812085245863759,-0.1569574098312428,90.01451420531288,-0.9349268928317284,0.78364720476484,0.09049971895031048
1733312870621918,0.15254444,0.092553735,-9.48221,0.017109869,0.027578635,-0.10867551,-0.062407225,-0.0052945684,-0.0055814157,-0.09572925626968087,-0.15071330041961292,90.01312083774383,-0.9510504763804098,0.7805136764537315,-0.17417094613221115
1733312870629918,0.15193628,0.092662856,-9.483013,0.01662365,0.027544476,-0.108615264,-0.06077741,-0.004269881,0.007530674,-0.10300646254055439,-0.14462399312481927,90.01167283000507,-0.9096507838591901,0.7611634118492064,-0.18100096734508256
1733312870645918,0.15076517,0.09288822,-9.484626,0.015687207,0.027451575,-0.10844765,-0.058527686,-0.00580633,0.010475981,-0.11675460826013463,-0.13319582573810881,90.00848311764067,-0.8592591074737651,0.7142604616694038,-0.19935702277455494
1733312870653918,0.15020153,0.093004204,-9.4854355,0.015255366,0.027391223,-0.10851815,-0.053980038,-0.007543945,-0.0088131055,-0.12381934163962953,-0.1278043779177345,90.00657065801006,-0.8830916724368624,0.6739309775467907,-0.23905745382639795
1733312870661918,0.14965218,0.09312224,-9.486249,0.014865106,0.027349038,-0.10855111,-0.048782557,-0.005273148,-0.0041192397,-0.13119349823585919,-0.1226250811249264,90.00473333152281,-0.9217695745287086,0.6474120991010116,-0.2296658109056183
1733312870669918,0.14911698,0.093242235,-9.487088,0.014502406,0.027290167,-0.1084378,-0.04533748,-0.007358845,0.014163553,-0.13852437892529476,-0.11786705681571254,90.00288234601216,-0.9163600861794465,0.5947530386517331,-0.23137318883199443
1733312870685918,0.14812076,0.09347807,-9.4887705,0.013827226,0.027172841,-0.10815468,-0.042198747,-0.0073328842,0.017695129,-0.15361496806920674,-0.10908274262581573,89.99901303601786,-0.9431618214944983,0.54901963686855,-0.2418318746434142
1733312870693918,0.14764218,0.09359859,-9.489614,0.013497009,0.027107475,-0.10809489,-0.041277144,-0.008170726,0.007472932,-0.16168312356098932,-0.10532276359634035,89.99719961743506,-1.0085194364728227,0.469997378684422,-0.22667732285099532
1733312870701918,0.14717622,0.09372066,-9.490457,0.013199913,0.027031614,-0.107979655,-0.037136953,-0.009482726,0.014404765,-0.16980942309114003,-0.10200959615707451,89.99520861516868,-1.0157874412688381,0.4141459299082297,-0.24887528329644723
1733312870709918,0.14672267,0.09384419,-9.491301,0.012916143,0.026956102,-0.10777745,-0.035471283,-0.009438954,0.025276093,-0.17816830373974663,-0.09903504419524832,89.99309808400382,-1.0448600810758233,0.3718189952282741,-0.2638163956084688
1733312870725918,0.14585158,0.094095364,-9.493013,0.0123733785,0.026818462,-0.10718509,-0.033922784,-0.00860251,0.0370224,-0.19523844992521075,-0.09336508539554203,89.9890204566461,-1.0668841365915083,0.35437242498164345,-0.2548517098567331
1733312870733918,0.14622621,0.09443613,-9.494381,0.012468516,0.026922723,-0.10721144,0.011892173,0.013032694,-0.0032940877,-0.20368439538095812,-0.09095228459934486,89.98674941666069,-1.0557431819684227,0.30160009952464567,-0.28387999817777776
1733312870741918,0.14659458,0.09477476,-9.495736,0.012548769,0.027022224,-0.10716694,0.010031624,0.012437579,0.0055627893,-0.2127225864063774,-0.08902223350997884,89.98427347295825,-1.1297738781774103,0.24125638617075257,-0.3094929628041498
1733312870749918,0.14695458,0.09511321,-9.497078,0.012650925,0.027133737,-0.10690371,0.012769479,0.013939104,0.032903627,-0.22162892270902815,-0.08754766462075866,89.98164726044968,-1.1132920378313433,0.18432111115252278,-0.32827656357151136
1733312870765918,0.14765802,0.09578427,-9.499723,0.012873099,0.027339663,-0.106422864,0.013885902,0.012870411,0.030052846,-0.2388614051309474,-0.08556483309560227,89.97555814331449,-1.0770301513699518,0.12392697032227465,-0.3805698209494248
1733312870773918,0.148002,0.096116886,-9.501027,0.012990266,0.027419835,-0.106272124,0.014645861,0.010021496,0.018842518,-0.24715804213972814,-0.08460582411989002,89.97266555405946,-1.0370796260975936,0.11987612196403005,-0.36157365687848414
1733312870781918,0.14834116,0.09644757,-9.502319,0.0131042395,0.027504878,-0.106073044,0.014246673,0.010630348,0.024884937,-0.2551988832569817,-0.08347859490023532,89.96951683227162,-1.0051051396566968,0.14090365245683859,-0.3935902234790774
1733312870789918,0.14867568,0.0967765,-9.50362,0.013214077,0.027590541,-0.10572388,0.013729673,0.01070788,0.043645497,-0.2626476908675829,-0.08235618820495344,89.96653887116034,-0.9311009513251464,0.14030083691023415,-0.37224513891106825
1733312870805918,0.14933178,0.097429544,-9.50618,0.0134599805,0.027774109,-0.10469137,0.015368976,0.011472962,0.0645318,-0.27479532788618055,-0.08039242679663934,89.96015946787347,-0.7592273136623557,0.12273508801963139,-0.39871270542955106
1733312870813918,0.1496538,0.09775384,-9.50744,0.01358096,0.027854372,-0.10439315,0.015122466,0.010032904,0.03727805,-0.2798043462773134,-0.0793064990352079,89.9569390342857,-0.6261272988915978,0.13574097017893064,-0.40255419847066815
1733312870821918,0.14997573,0.09808158,-9.508687,0.013697502,0.027925458,-0.10401659,0.014567747,0.008885749,0.04706997,-0.284116436132988,-0.07823603262380094,89.95379031285754,-0.5390112319593316,0.1338083014258702,-0.3935901785203467
1733312870829918,0.15029396,0.09840782,-9.509921,0.013817284,0.027993336,-0.10342974,0.014972756,0.008484814,0.07335562,-0.28777212452626766,-0.07718080077702273,89.94997564163272,-0.4569610491599597,0.13190398084727487,-0.4768339031030617
1733312870845918,0.15092033,0.099056035,-9.51237,0.014070082,0.028133271,-0.10219949,0.015799887,0.008745934,0.07689092,-0.29266519997956125,-0.07475053862683648,89.94282784555766,-0.30581721583084676,0.15189138438664163,-0.4467372546908952
1733312870853918,0.15122871,0.09937817,-9.513585,0.014183182,0.028184643,-0.10167175,0.014137476,0.0064214687,0.06596744,-0.2942444833630282,-0.07322131535959014,89.93935128561752,-0.19741042293337394,0.1911529084057908,-0.4345699925177099
1733312870861918,0.15111396,0.099376805,-9.514503,0.014112293,0.028120618,-0.101057,-0.008861185,-0.008003088,0.076843426,-0.29546527533575595,-0.07150108015234266,89.93597374941317,-0.1525989965909657,0.21502940090593486,-0.4221920255440042
1733312870869918,0.1510055,0.099381536,-9.515414,0.014041804,0.028053604,-0.10032016,-0.008811126,-0.008376781,0.092105,-0.29613907199547507,-0.06983831469076884,89.93299578692435,-0.08422458246489009,0.20784568269672765,-0.3722453111015279
1733312870885918,0.15080671,0.09940853,-9.517215,0.013905244,0.027913164,-0.09868736,-0.008534989,-0.008777482,0.10205013,-0.2957164240924102,-0.06617590331231812,89.92687251474928,0.026415493941553583,0.22890071115317018,-0.3827045109422682
1733312870893918,0.15071596,0.09942741,-9.518104,0.013837916,0.027847987,-0.09804286,-0.008416013,-0.00814721,0.08056219,-0.2949501900702931,-0.06404508301849209,89.92362134103604,0.0957792527646408,0.26635253672825476,-0.4063967141547368
1733312870901918,0.15063073,0.09945169,-9.518987,0.013772172,0.027774265,-0.097317025,-0.00821799,-0.009215204,0.09072944,-0.2937109539557387,-0.06192601554795817,89.92102244554661,0.15490451431929786,0.2648834338167392,-0.32486193617818215
1733312870909918,0.15055066,0.09948111,-9.519888,0.013677959,0.027705818,-0.0965561,-0.011776573,-0.008555828,0.09511597,-0.2921831994847753,-0.05998737464455881,89.91841332879659,0.19096930887042793,0.24233011292492027,-0.3261395937538918
1733312870925918,0.1504048,0.099555045,-9.521666,0.013486309,0.027590215,-0.09498046,-0.011978147,-0.0072252,0.09847711,-0.2886549729328808,-0.055945861598064354,89.91323944875518,0.22051415949340633,0.25259456540590347,-0.3233675025882214
1733312870933918,0.1503386,0.0995991,-9.522544,0.01338342,0.02751241,-0.094352566,-0.012861098,-0.009725569,0.0784872,-0.28710555457512,-0.05408522116079142,89.91088304056234,0.1936772947200963,0.2325800546591171,-0.29455102410450806
1733312870941918,0.15027659,0.09964771,-9.523415,0.013287498,0.02747074,-0.09368807,-0.011990312,-0.0052088867,0.08306186,-0.2858832781573553,-0.052536261652539336,89.90867346553372,0.15278455222058596,0.19361993853150974,-0.27619687857744835
1733312870949918,0.1502186,0.099700764,-9.524277,0.013182765,0.027407298,-0.09291069,-0.0130916005,-0.007930212,0.09717233,-0.2843930098067971,-0.05110160117493501,89.9063204675712,0.1862835438197795,0.17933255970054152,-0.2941247453143818
1733312870965918,0.15010253,0.099839866,-9.526005,0.012935133,0.027343107,-0.09132346,-0.015477009,-0.004011905,0.09920215,-0.2813354381570495,-0.0482814390181072,89.90056261299536,0.19109822810922653,0.1762601348017379,-0.35986591099055637
1733312870973918,0.15004961,0.09991544,-9.526869,0.012795157,0.027302327,-0.09070482,-0.01749699,-0.0050975936,0.077329576,-0.2801365603990722,-0.046980180809846867,89.89715776208644,0.1498597197471598,0.16265727603254196,-0.42560636361499626
1733312870981918,0.14999983,0.09999483,-9.527726,0.012666523,0.027271032,-0.09007286,-0.016079167,-0.0039117876,0.07899477,-0.2791377835670257,-0.04591994033511384,89.89383145222523,0.12484710400580919,0.13253005934162823,-0.41578873265131605
1733312870989918,0.15001282,0.100383684,-9.528761,0.012519116,0.027316345,-0.089310504,-0.018425984,0.0056640706,0.09529478,-0.27784944746548074,-0.0449167426453512,89.89035146327173,0.16104201269312354,0.12539971122033025,-0.4349986191869409
1733312871005918,0.1500412,0.10114999,-9.530788,0.0122130625,0.027431132,-0.08770154,-0.019128317,0.00717421,0.10056048,-0.27509898100243013,-0.043157248042795374,89.88516392999713,0.17190415394066158,0.1099684126597388,-0.32422082966233184
1733312871013918,0.15005639,0.101527765,-9.531781,0.012060523,0.027487565,-0.08706148,-0.019067433,0.0070540695,0.08000712,-0.2741184432634627,-0.0425770019660593,89.8829304484048,0.12256721737092997,0.07253075959200991,-0.2791851990406938
1733312871021918,0.15007222,0.10190204,-9.532763,0.011909198,0.027532637,-0.08639808,-0.018915627,0.0056340354,0.082924955,-0.27337270102204275,-0.042098808552324625,89.88069015068237,0.09321778017749228,0.05977417671683352,-0.2800372153048519
1733312871029918,0.1500834,0.10226725,-9.533756,0.011750137,0.027580803,-0.08564297,-0.019882571,0.006020767,0.094388604,-0.27303026155432863,-0.04144755250991321,89.8785522987009,0.042804933464267454,0.08140700530142712,-0.2672314976836815
1733312871045918,0.15010726,0.10298833,-9.535703,0.011419925,0.027683012,-0.084132686,-0.020638281,0.0063880575,0.0943928,-0.27267916145137694,-0.03944941485476478,89.87548894340384,0.02194375643447818,0.12488360344677668,-0.1914597060658246
1733312871053918,0.15011992,0.103344455,-9.536656,0.011265545,0.02773404,-0.0835251,-0.01929747,0.006378395,0.075948425,-0.2724234961962982,-0.03839925968730989,89.87425950457099,0.03195815688484658,0.1312693959318624,-0.1536798541073587
1733312871061918,0.15013301,0.10369778,-9.537599,0.011117764,0.027784688,-0.08284628,-0.018472666,0.0063311304,0.08485279,-0.27222238137146215,-0.03733188231382694,89.87307789205538,0.025139353104502136,0.13342217168536794,-0.14770156445129318
1733312871069918,0.1501466,0.10404831,-9.5385275,0.010969564,0.027816819,-0.08207491,-0.018524937,0.0040163286,0.09642075,-0.2723302758206432,-0.03618791877388049,89.87193723792201,-0.013486806147622286,0.14299544249330712,-0.14258176667030756
1733312871085918,0.15017532,0.10474162,-9.540374,0.010705188,0.027917795,-0.08052113,-0.016523525,0.0063109905,0.09711133,-0.2730403407750229,-0.032907359642415576,89.86974817530914,-0.0443790596487365,0.2050349457165566,-0.13681641330464914
1733312871093918,0.15019035,0.10508455,-9.541291,0.010565082,0.027955182,-0.07997336,-0.017513288,0.0046733767,0.068470836,-0.2733555397926844,-0.031115795407341003,89.86864508695565,-0.039399877207685764,0.2239455293843218,-0.137886044186394
1733312871101918,0.15021057,0.10542638,-9.542197,0.01045173,0.027985707,-0.079332516,-0.014168908,0.0038156284,0.08010584,-0.2734678097621376,-0.02924476354214196,89.8676888707989,-0.014033746181641977,0.23387898314988054,-0.11952701959303624
1733312871109918,0.15043366,0.10560594,-9.543516,0.01042506,0.028010717,-0.07869436,-0.0033337853,0.0031262168,0.07976963,-0.2740153556066447,-0.027236234114829488,89.8667087333449,-0.06844323056339124,0.251066178414059,-0.12251718175169915
1733312871125918,0.15086785,0.105972014,-9.546085,0.010368515,0.028055802,-0.077391505,-0.003534078,0.0028178326,0.08142832,-0.2757894030731354,-0.02265617829439188,89.86436937577152,-0.11087796665566933,0.28625348877735046,-0.14620984833599876
1733312871133918,0.15107927,0.10615844,-9.547337,0.010343776,0.028083187,-0.076872535,-0.00309234,0.003423076,0.064871274,-0.2762938707602946,-0.019983879936589635,89.86340634614567,-0.06305846089490333,0.33403729472528054,-0.12037870323160528
1733312871141918,0.15128703,0.10634708,-9.548568,0.010308323,0.028103316,-0.07635607,-0.004431582,0.0025162005,0.06455835,-0.2765089658654172,-0.01725339160953434,89.86241594706837,-0.026886888140320538,0.34131104088191205,-0.12379988466038329
1733312871149918,0.15149105,0.106537774,-9.549801,0.010257218,0.028120423,-0.07559606,-0.006388174,0.0021383166,0.095001414,-0.27694338801746143,-0.014605092377983306,89.86165438316738,-0.05430276900553254,0.33103740394387926,-0.09519548762541967
1733312871165918,0.15188862,0.10692514,-9.552201,0.010201943,0.028162694,-0.07404391,-0.0034546827,0.002641929,0.097009346,-0.278236056099213,-0.009472912133009607,89.86054790410499,-0.08079175510947138,0.32076126531085614,-0.06915494139885932
1733312871173918,0.15207289,0.107128456,-9.5533695,0.010156679,0.028172668,-0.0735127,-0.005658017,0.001246808,0.066400506,-0.278455073135723,-0.006690597194056026,89.86022347111758,-0.027377129563746765,0.34778936736919763,-0.04055412342697111
1733312871181918,0.15225412,0.107333384,-9.55452,0.010126556,0.028184105,-0.07284693,-0.003765337,0.00142958,0.08322205,-0.2785866327623424,-0.003862325236221924,89.85900086269416,-0.01644495332743027,0.35353399472926267,-0.15282605292704526
1733312871189918,0.15243243,0.107539944,-9.555648,0.010097853,0.028195966,-0.071985,-0.00358792,0.0014826654,0.107740976,-0.27874897116739505,-0.0009983682174227564,89.85793194148975,-0.020292300631580523,0.35799462734989596,-0.13361515055088016
1733312871205918,0.15278059,0.107957385,-9.557866,0.01002038,0.02818841,-0.070174076,-0.0048420625,-0.00047229693,0.11318269,-0.27842292360169785,0.004431805599979017,89.85564380131346,0.020377972856076763,0.33938586358761086,-0.14300876101844545
1733312871213918,0.15295051,0.108168095,-9.558956,0.009981364,0.028184302,-0.06950014,-0.004876987,-0.00051339157,0.084241845,-0.2780023916724438,0.007012976789100918,89.8544895030833,0.05256649115675193,0.3226463986402376,-0.14428727877039782
1733312871221918,0.15311778,0.10838011,-9.560028,0.0099370275,0.028192783,-0.068748735,-0.0055420673,0.0010600779,0.09392574,-0.2777766613537544,0.009734913924383951,89.8535844973057,0.02821628983617356,0.3402421419103792,-0.11312572219784828
1733312871229918,0.15328239,0.108593404,-9.561079,0.009882464,0.028184788,-0.06783704,-0.006820424,-0.0009993091,0.11396221,-0.2776611364649459,0.01247479366884682,89.85271022724216,0.01444061110106785,0.34248496805785844,-0.10928375794403777
1733312871245918,0.15449557,0.108749345,-9.563286,0.010142009,0.027914084,-0.06599542,0.016221544,-0.016918987,0.11510122,-0.2769286872733152,0.01799972321381337,89.84961612643029,0.04577807447691659,0.3453080965604093,-0.19338130074211707
1733312871253918,0.15508369,0.108831875,-9.564358,0.010276462,0.027789598,-0.06532873,0.016806647,-0.0155607695,0.08333567,-0.27677951874036144,0.021116050565425145,89.84776514249106,0.018646066619222485,0.389540918951472,-0.23137299240411785
1733312871261918,0.15565997,0.1089173,-9.56541,0.010394954,0.027649425,-0.06456354,0.01481152,-0.01752167,0.09564868,-0.2765142116497656,0.024190382984529947,89.84594487602492,0.033163386324481126,0.3842915523881005,-0.2275333082676946
1733312871269918,0.1562246,0.10900536,-9.566466,0.01048902,0.027499883,-0.06364588,0.011758179,-0.018692808,0.1147082,-0.2759984582602221,0.02716354328478806,89.8442783065068,0.06446917369293226,0.3716450375322642,-0.20832118976509983
1733312871285918,0.15732025,0.10918886,-9.568518,0.010702615,0.02721039,-0.061870754,0.013349693,-0.01809327,0.110945195,-0.27405315099791666,0.03254607992898333,89.84110909159087,0.12158170389408979,0.3364085402622047,-0.198075932244886
1733312871293918,0.15785192,0.109284095,-9.569513,0.010810049,0.027059523,-0.06121709,0.013429321,-0.01885835,0.081708185,-0.2725314440021378,0.03491542227000574,89.83968155884864,0.19021337447236053,0.29616779262780035,-0.17844159277857066
1733312871301918,0.15837333,0.109381534,-9.570492,0.010922091,0.026926186,-0.060479067,0.014005228,-0.016667182,0.09225262,-0.27064485947113537,0.03719174334428719,89.83822673406605,0.2358230663753047,0.28454013428518093,-0.18185309782295936
1733312871309918,0.1588816,0.109485544,-9.57145,0.011028507,0.0268019,-0.05954999,0.013301963,-0.015535857,0.116134524,-0.2684047736203397,0.03927436453554818,89.83688799307714,0.2800107313494567,0.2603276489076246,-0.16734262361542845
1733312871325918,0.15986894,0.10969929,-9.573336,0.011167742,0.026511326,-0.05775258,0.008702219,-0.01816079,0.11233822,-0.2627086649449309,0.04279474098670679,89.83302209163791,0.35600679221305026,0.22002352819741292,-0.24161883995141606
1733312871333918,0.16034847,0.10980884,-9.574263,0.011256839,0.026379287,-0.057097167,0.011137104,-0.016504899,0.08192658,-0.2594326529242868,0.04433042008606806,89.83114036214265,0.40950150258051643,0.19195988742015804,-0.2352161869076111
1733312871341918,0.16081892,0.10992005,-9.575173,0.011309835,0.02623783,-0.056353852,0.006624497,-0.01768209,0.09291432,-0.2557180835865239,0.04562045912281449,89.82938498036694,0.4643211672203538,0.16125487959330398,-0.2194227219639196
1733312871349918,0.16128032,0.11003277,-9.576065,0.011347511,0.02608817,-0.055411007,0.0047094654,-0.018707477,0.11785561,-0.251649468369512,0.046680386097954434,89.82764668395966,0.508576902126491,0.13249087189249326,-0.21728705090990139
1733312871365918,0.16115248,0.11029882,-9.578051,0.011015668,0.02555649,-0.053683896,-0.020740204,-0.033230055,0.10794447,-0.24291644219547215,0.048935063010494995,89.82429304420803,0.545814135877492,0.1409173070337852,-0.20960248447683766
1733312871373918,0.16110107,0.11043858,-9.579014,0.010879524,0.025320945,-0.05309645,-0.01701794,-0.029443063,0.07343059,-0.23804473819310884,0.050023211268620825,89.82288603144895,0.6089630002954142,0.13601853226572833,-0.1758765948864236
1733312871381918,0.16105269,0.11057723,-9.579959,0.010743206,0.02509019,-0.05245269,-0.01703971,-0.028844455,0.08046999,-0.23284726879872314,0.05099052384545298,89.82051253027632,0.6496836742982124,0.12091407210401993,-0.29668764657852176
1733312871389918,0.16100718,0.11071474,-9.580911,0.010593805,0.024851086,-0.051620208,-0.018675113,-0.029888002,0.10406039,-0.2274755507296682,0.051603753682755785,89.81792729430198,0.6714647586318652,0.07665372966285032,-0.3231544967907674
1733312871405918,0.1609236,0.110986084,-9.582753,0.010249047,0.024371604,-0.04988362,-0.021547427,-0.02996763,0.108536795,-0.21751531244020972,0.0522300902909056,89.81366180709524,0.6225148930911553,0.03914603800936351,-0.2665929504218291
1733312871413918,0.16088496,0.11111991,-9.583646,0.010064835,0.02412424,-0.04926871,-0.023026483,-0.030920373,0.076863445,-0.21299278592840526,0.05280729487911057,89.81144538829786,0.5653158139755595,0.0721505735256208,-0.2770523496730112
1733312871421918,0.1608482,0.11125248,-9.584521,0.009877079,0.023885421,-0.04862055,-0.023469444,-0.02985238,0.08101994,-0.20861410608343126,0.05309386279182917,89.80933483666227,0.5473349806217498,0.035820989089825776,-0.26381895444740444
1733312871429918,0.16081321,0.11138377,-9.585379,0.0097004445,0.023632903,-0.047712017,-0.022079328,-0.03156485,0.11356687,-0.20461974116653583,0.052863630623502945,89.80754533643668,0.4992956146119255,-0.028779021040778792,-0.22368752819906473
1733312871445918,0.16075195,0.111647464,-9.587064,0.009332237,0.023182852,-0.045960743,-0.023012979,-0.028128153,0.10945461,-0.19738494088382308,0.052273472682345924,89.8039014039379,0.45217501766954743,-0.03688487132231382,-0.22774578117354854
1733312871453918,0.16072527,0.1117799,-9.587893,0.009141998,0.022958774,-0.045348916,-0.023779808,-0.028009757,0.07647835,-0.19431682187857588,0.05209577429840875,89.80169182657991,0.3835148756559027,-0.02221229799214722,-0.276197169749278
1733312871461918,0.16069967,0.11191108,-9.588704,0.008950106,0.02272615,-0.044668052,-0.023986561,-0.029077984,0.085107975,-0.19157714704150278,0.05153987404586209,89.79953687853248,0.342459354634136,-0.06948753156833196,-0.2693685059287627
1733312871469918,0.16067503,0.112041086,-9.5894985,0.008758251,0.02251732,-0.043842286,-0.023981905,-0.026103806,0.103220806,-0.18924165380745825,0.05072978260518062,89.7973921875819,0.29193665425556553,-0.1012614300851831,-0.2680863688216731
1733312871485918,0.16082588,0.11208557,-9.591977,0.008512375,0.022005007,-0.0422611,-0.0153672295,-0.032019567,0.09882403,-0.18570234812153893,0.04926387937684931,89.7937687575015,0.2212066053699567,-0.0916189517707069,-0.22646438002534344
1733312871493918,0.16099788,0.11200454,-9.593638,0.008469559,0.02172257,-0.041884247,-0.005351961,-0.035304576,0.047106758,-0.1848466599602833,0.04879536424682083,89.79091373160719,0.10696102015695723,-0.05856439125356039,-0.35687823678898745
1733312871501918,0.16116722,0.11192688,-9.595262,0.008415238,0.02143447,-0.041414127,-0.006790156,-0.036012612,0.058765054,-0.18414722261608246,0.04813772485018579,89.78799719686803,0.08742966802510481,-0.08220492457938038,-0.36456684239450365
1733312871509918,0.16133383,0.11185251,-9.596866,0.008348179,0.021160623,-0.04076896,-0.008382369,-0.03423076,0.08064601,-0.18368094675485458,0.047210559699921946,89.78539828879107,0.05828448265348412,-0.11589564378297972,-0.324863509620847
1733312871525918,0.161669,0.11171355,-9.599955,0.00822338,0.020592026,-0.039193362,-0.0077999425,-0.035537288,0.098474786,-0.18297349436473828,0.045539437312169105,89.78028930363702,0.044215774382268196,-0.10444514923455267,-0.3193115721279187
1733312871533918,0.16183265,0.111648515,-9.601441,0.008155448,0.020319352,-0.038521376,-0.00849145,-0.03408431,0.08399831,-0.1828501804630627,0.04443227264457931,89.77806263850206,0.015414237709446972,-0.13839558344872438,-0.27833314186983155
1733312871541918,0.16199367,0.11158636,-9.602892,0.008080736,0.02005594,-0.03777372,-0.00933907,-0.032926444,0.09345682,-0.18309014305862803,0.04310839616813119,89.77595552737868,-0.029995324445666223,-0.1654845595560156,-0.26338889042190183
1733312871549918,0.16215222,0.11152698,-9.604305,0.008019192,0.019786308,-0.036819935,-0.007692957,-0.0337041,0.11922325,-0.18364766547626699,0.04162010154317783,89.77389618713539,-0.06969030220486783,-0.1860368281191695,-0.25741753041207077
1733312871565918,0.16246209,0.111416504,-9.607041,0.00787525,0.019304555,-0.03480576,-0.008996401,-0.030109541,0.12588593,-0.1850059859761625,0.03813837841933565,89.77036157801999,-0.08489503124346956,-0.2176076952401364,-0.22091306971235397
1733312871573918,0.16261356,0.11136538,-9.608366,0.007812585,0.019080108,-0.033985965,-0.007833121,-0.028055858,0.10247435,-0.18515019295857535,0.0360915023636337,89.76871547436167,-0.01802587280160779,-0.2558595069627435,-0.205762957289656
1733312871581918,0.16276278,0.11131697,-9.609655,0.007738952,0.018866772,-0.03311769,-0.009204086,-0.026667023,0.10853446,-0.18507238219399746,0.03401556469436223,89.76740750373291,0.0097263455722374,-0.25949220865893324,-0.16349632859591234
1733312871589918,0.16291012,0.111277305,-9.61091,0.007677589,0.01866279,-0.032083206,-0.0076703723,-0.025497748,0.12931041,-0.18487996393181075,0.03181602997510687,89.76613705725444,0.024052282773338186,-0.27494183990692045,-0.15880580980797146
1733312871605918,0.16319838,0.111205675,-9.613317,0.007512157,0.01827146,-0.029853523,-0.010339513,-0.024458159,0.13935518,-0.18385684614705536,0.02699125441177748,89.76211406742888,0.06394486154721148,-0.3015484727080869,-0.2514368640976514
1733312871613918,0.16352229,0.11140435,-9.614171,0.0074977735,0.018191522,-0.028872292,-0.0017979181,-0.009992159,0.12265378,-0.18328331565462352,0.024487542930983493,89.76036209633811,0.07169131155397995,-0.31296393509924825,-0.2189963863452326
1733312871621918,0.16383989,0.111600265,-9.615001,0.0074862815,0.018110579,-0.027806744,-0.0014365067,-0.0101178875,0.13319355,-0.18315336929256448,0.02191640338426671,89.75892774046287,0.016243295257379647,-0.32139244333959816,-0.1792944844061202
1733312871629918,0.16415137,0.111793496,-9.615829,0.0074666333,0.018036375,-0.02668495,-0.0024560138,-0.009275507,0.14022434,-0.18313006405732596,0.019346444490621638,89.75765049195468,0.0029131544048173552,-0.3212448617056339,-0.15965606352322514
1733312871645918,0.16475585,0.112172194,-9.617413,0.0073460806,0.01786029,-0.024426531,-0.007534545,-0.0110053215,0.14115113,-0.1823835410478639,0.013695996839762142,89.75540336549155,0.04665768809137949,-0.35315297817871844,-0.14044540394583357
1733312871653918,0.16506456,0.112362556,-9.61817,0.0073180827,0.017785374,-0.023545565,-0.0034997354,-0.0093644485,0.11012074,-0.1823789787180549,0.011017955642889179,89.75447103864438,0.0005702912261239425,-0.33475514960912023,-0.11654085589572585
1733312871661918,0.16536735,0.11255059,-9.618904,0.0072912276,0.01771218,-0.022617983,-0.0033568938,-0.009149313,0.11594779,-0.18269031103169972,0.008676461372979888,89.75379145581404,-0.03891653920560309,-0.29268678373866147,-0.08494785379353251
1733312871669918,0.1656643,0.11273638,-9.6196165,0.007248793,0.017646119,-0.021575008,-0.0053043473,-0.008257572,0.13037188,-0.1827303981678817,0.0064778541422824765,89.75318010081475,-0.005010892022746972,-0.2748259038371764,-0.07641937491109736
1733312871685918,0.16624081,0.113102086,-9.620999,0.0071415803,0.017564325,-0.019540204,-0.0067007784,-0.0051121456,0.12717524,-0.18167962406676083,0.002799623838772191,89.75274983236955,0.06567338132005368,-0.22988939396939284,-0.026891777824819593
1733312871693918,0.16652055,0.11328232,-9.621671,0.007080655,0.017508507,-0.018708833,-0.007615657,-0.0069772354,0.10392139,-0.18112323324514934,0.001003570900580396,89.75266104074939,0.06954885270143744,-0.22450661727397436,-0.011098952520889821
1733312871701918,0.16679479,0.113460764,-9.622321,0.007026427,0.017453669,-0.017826455,-0.0067785145,-0.0068547665,0.110297225,-0.18056012153296744,-0.0005825937918709706,89.75269516189145,0.07038896402273806,-0.1982705865564208,0.00426514275850404
1733312871709918,0.1670637,0.11363754,-9.622951,0.0069810855,0.017399982,-0.016793555,-0.0056676795,-0.006710877,0.1291125,-0.17979071519730855,-0.0018673763874547278,89.7528283493387,0.09617579195736027,-0.16059782444796966,0.01664843090515012
1733312871725918,0.16758272,0.11397287,-9.624147,0.0068711173,0.017301314,-0.014876041,-0.006873015,-0.006166752,0.11984462,-0.17767491964131968,-0.004335982848119999,89.75309133861198,0.1322372222493049,-0.15428790379157947,0.01643682958021292
1733312871733918,0.16743302,0.11364345,-9.624418,0.006685451,0.01697818,-0.01401898,-0.023208266,-0.04039169,0.10713259,-0.17629439316748868,-0.005250567859557364,89.75499697297269,0.17256580922887255,-0.11432312642967062,0.23820429508950514
1733312871741918,0.16728792,0.113322616,-9.624679,0.0065011024,0.016667828,-0.013159759,-0.023043597,-0.038794007,0.107402556,-0.17454631605837306,-0.005640715737230838,89.75659525170045,0.21850963863945222,-0.04876848470918428,0.19978484096904978
1733312871749918,0.16714726,0.113010086,-9.624954,0.006324586,0.01634842,-0.0121729,-0.022064544,-0.03992603,0.12335739,-0.17307068477576398,-0.005982391950154882,89.75835060896308,0.18445391032613712,-0.042709526615505415,0.21941965783026168
1733312871765918,0.16687861,0.11240885,-9.625467,0.005971815,0.01573878,-0.010260556,-0.022048188,-0.0381025,0.119521506,-0.17097177789348564,-0.00591453028512537,89.76242145162796,0.13118168014239623,0.004241354064344485,0.25442766655445087
1733312871773918,0.16675027,0.112119675,-9.625707,0.005796972,0.015423358,-0.009533686,-0.021855345,-0.039427657,0.09085878,-0.1698268222993853,-0.005862149937629894,89.76446368886228,0.14311944926254155,0.006547543436934467,0.2552796542906238
1733312871781918,0.1666256,0.11183776,-9.625936,0.0056111002,0.015132919,-0.008825644,-0.023233995,-0.036304932,0.08850521,-0.16869759474963006,-0.006138719239679469,89.76670057107646,0.1411534437194055,-0.03457116275619685,0.27961027677226813
1733312871789918,0.16650434,0.111562975,-9.626154,0.0054107793,0.014843324,-0.007975157,-0.02504012,-0.036199342,0.106310815,-0.1676020377580499,-0.006780783706171175,89.76896482935688,0.13694462394751805,-0.08025805831146325,0.28303228505143696
1733312871805918,0.16628096,0.11102882,-9.626587,0.0050723385,0.014261511,-0.0064273602,-0.021152547,-0.036363315,0.09673732,-0.1656942954255885,-0.008069014757396393,89.77410114512956,0.11923389577883874,-0.0805144407015761,0.3210197357928359
1733312871813918,0.16617383,0.11077139,-9.6268015,0.0048943316,0.013967937,-0.0058870297,-0.022250867,-0.036696784,0.067541316,-0.16512883282114593,-0.00894631387934624,89.77691863009558,0.0706828255553191,-0.10966239024373094,0.3521856207528313
1733312871821918,0.16606952,0.11052015,-9.6270075,0.004725612,0.013701286,-0.0053415513,-0.021089973,-0.033331335,0.0681848,-0.16521605077426707,-0.010316340456491473,89.77985904416606,-0.010902244140142561,-0.17125332214315409,0.367551758810261
1733312871829918,0.16596788,0.11027505,-9.627204,0.004553313,0.013449788,-0.0046831747,-0.021537358,-0.03143726,0.08229707,-0.1652975591390644,-0.012107470889307723,89.78281311862511,-0.010188545599666822,-0.22389130410203137,0.36925930738134716
1733312871845918,0.16577193,0.10980248,-9.627567,0.0041936184,0.01295195,-0.0034571164,-0.022480903,-0.031114904,0.07662863,-0.16541026665114722,-0.016556392118733745,89.78871787793734,-0.007044219505174779,-0.27805757683912624,0.36904745701420755
1733312871853918,0.16567725,0.1095747,-9.627736,0.004015852,0.012720903,-0.0030213406,-0.022220774,-0.028880777,0.054471977,-0.16570900615595271,-0.019116425851172205,89.79154217956275,-0.03734243810068671,-0.32000421655480765,0.35303770317570743
1733312871861918,0.16660991,0.10926079,-9.628273,0.0044076312,0.012417689,-0.002593845,0.048972372,-0.0379018,0.053436957,-0.16629536935929823,-0.02191009346295089,89.79441768276969,-0.0732954004181907,-0.349208451472336,0.35943790086866984
1733312871869918,0.16752774,0.10895536,-9.628818,0.004769453,0.012140953,-0.0021254765,0.0452277,-0.034591995,0.058546048,-0.1677851547427832,-0.024658877975266835,89.79528170843828,-0.18622317293561969,-0.34359806403949267,0.10800320857302569
1733312871885918,0.16930859,0.108363986,-9.629851,0.0054718503,0.011603238,-0.0012804396,0.043899838,-0.03360718,0.052814808,-0.1718457887760292,-0.030664742722407733,89.79693122516376,-0.2537896270778768,-0.3753665466963062,0.10309479534229725
1733312871893918,0.17017277,0.10807787,-9.6303425,0.0058090733,0.011359937,-0.0009689923,0.04215288,-0.030412687,0.038930904,-0.17365414738907892,-0.03392986714955525,89.79773031613061,-0.22604482663121206,-0.4081405533934403,0.09988637085721871
1733312871901918,0.17102002,0.10779813,-9.6308155,0.0061189635,0.011150318,-0.0006439524,0.038736265,-0.026202293,0.040629987,-0.1750306052735897,-0.03744104530186777,89.79881291864635,-0.17205723556385158,-0.43889726903906434,0.13532531446663645
1733312871909918,0.17185083,0.10752483,-9.631273,0.0064348914,0.010955879,-0.00026627927,0.039490987,-0.02430484,0.04720914,-0.1758448186743666,-0.04100690514277379,89.7998886551168,-0.1017766750971106,-0.44573248011325184,0.1344670588065819
1733312871925918,0.1734655,0.106997065,-9.632166,0.0070584826,0.010577908,0.0005399223,0.038974453,-0.023623228,0.050387595,-0.175300427888924,-0.048465027097908196,89.80179085194861,0.03402442409016351,-0.4661326221959006,0.11888730198804376
1733312871933918,0.17424448,0.10674654,-9.632602,0.007338104,0.010416216,0.0008327052,0.03495265,-0.020211445,0.036597863,-0.17446930945720313,-0.05257454808059505,89.80255242558785,0.10388980396510901,-0.5136901228358566,0.09519670490480041
1733312871941918,0.17500894,0.10650207,-9.633022,0.0076080863,0.010251042,0.0011463988,0.03374781,-0.020646721,0.039211705,-0.17315079491624913,-0.05682733662394258,89.80279488420504,0.16481431761924928,-0.5315985679184414,0.03030732714963155
1733312871949918,0.17575929,0.10626351,-9.633428,0.007868526,0.010097804,0.0015068919,0.032554902,-0.01915486,0.045061633,-0.17118227063039057,-0.06111594397324133,89.8031124745352,0.24606553573231926,-0.5360759186623433,0.039698791269168664
1733312871965918,0.17721938,0.10580415,-9.634193,0.008369286,0.00986217,0.0022224507,0.0312975,-0.014727119,0.04472242,-0.16489920656104387,-0.06975540520407209,89.80360764889913,0.3926915043341684,-0.5399663269269228,0.030948397745887608
1733312871973918,0.17792973,0.1055835,-9.634555,0.008574898,0.009771547,0.0025271561,0.025701592,-0.011327792,0.03808818,-0.16109747890041204,-0.07421765668926779,89.8035598027,0.47521595757898055,-0.5577814356494625,-0.005980774892195044
1733312871981918,0.17862731,0.10536884,-9.634902,0.008782277,0.009697474,0.0028652323,0.025922315,-0.009259209,0.042259518,-0.15692554354629645,-0.07896226784488328,89.80372370301117,0.5214919192644463,-0.5930763944519355,0.02048753889681503
1733312871989918,0.17941844,0.10519509,-9.6352,0.009111534,0.009575683,0.0032685853,0.041157123,-0.015223864,0.050419126,-0.15199965096222726,-0.0836436401937503,89.80389786028778,0.6157365730086509,-0.5851715436083779,0.021769659576339733
1733312872005918,0.18096174,0.10486041,-9.635571,0.009607433,0.009285092,0.059524667,0.030993715,-0.018161895,3.516005,-0.13737811402592892,-0.09490417455275826,89.74005543825506,0.9138460585186454,-0.7037833974379982,-3.9901513770450876
1733312872013918,0.18171394,0.104698725,-9.635226,0.009874203,0.009156351,0.09343812,0.033346236,-0.016092671,4.2391815,-0.07335330565084196,-0.13405749913403436,89.61857102475804,8.003101046885872,-4.894165572659513,-15.185551687126754
1733312872021918,0.18245383,0.10454121,-9.63468,0.0100589385,0.00911705,0.113568716,0.023091909,-0.0049126097,2.5163245,0.08478896204154776,-0.2274634525821818,89.33280685265109,19.767783461548714,-11.67574418101843,-35.72052151336896
1733312872029918,0.18318023,0.10438854,-9.633986,0.010002019,0.009189047,0.12896706,-0.0071149548,0.008999603,1.9247931,0.2702773252567999,-0.32709014450519097,88.95362189727442,23.186045401906515,-12.453336490376142,-47.398119422084484
1733312872045918,0.1845867,0.10410134,-9.632235,0.009257713,0.009714104,0.15976512,-0.046519093,0.032816082,1.9248788,0.6891109985474909,-0.5186383940882148,88.05803355242672,26.177104580668185,-11.971765598938989,-55.974271552981385
1733312872053918,0.18526368,0.10396873,-9.631175,0.008520077,0.01018297,0.17517415,-0.09220454,0.058608245,1.9261277,0.9225009517338467,-0.6098924487718781,87.54190912805055,29.173744148294475,-11.40675683545791,-64.5155530470209
1733312872061918,0.18592083,0.10384482,-9.629985,0.007525298,0.010778737,0.19060564,-0.12434739,0.07447088,1.9289366,1.1719832695129666,-0.6976900097058653,86.98018624531827,31.185289722389992,-10.974695116748398,-70.21536034153554
1733312872069918,0.1865564,0.10373053,-9.628663,0.00627554,0.011501014,0.2060189,-0.15621969,0.090284616,1.9266567,1.4376109923025053,-0.7815690609301008,86.3729922548402,33.203465348692326,-10.484881403029439,-75.8992488097584
1733312872085918,0.18776053,0.10351879,-9.625625,0.0028675497,0.01332597,0.23688681,-0.2129994,0.11405971,1.9292449,2.0173906323811437,-0.9356697151177386,85.02369056332529,36.2362275049149,-9.631290886727358,-84.33135571968144
1733312872093918,0.18832171,0.10343139,-9.623909,0.00069721567,0.014441844,0.2523532,-0.27129176,0.13948429,1.933297,2.3313633759961796,-1.0050073633725274,84.28172043383711,39.24659295187947,-8.667206031848616,-92.7462661860235
1733312872101918,0.1888526,0.10335775,-9.622062,-0.0017886866,0.015709152,0.26785737,-0.31073776,0.15841354,1.9380226,2.661448687898561,-1.0687129403162927,83.49470694851392,41.260663987797656,-7.963197117970667,-98.37668566539713
1733312872109918,0.18938349,0.10365696,-9.620156,-0.004616006,0.01729147,0.28341562,-0.3534149,0.19778962,1.9447802,3.0075092217027763,-1.1263210025032953,82.66289072665211,43.25756672552693,-7.201007773375314,-103.97702773272782
1733312872125918,0.19033466,0.104281895,-9.615943,-0.011346506,0.020941664,0.31461737,-0.42065623,0.22813712,1.9501092,3.7474285978015143,-1.2213209195809225,80.86522619246344,46.24496100617114,-5.937494817351699,-112.35403338679151
1733312872133918,0.19074966,0.10461059,-9.613636,-0.015259916,0.023019487,0.33025914,-0.4891762,0.25972793,1.9552222,4.140982305217482,-1.2572810997747008,79.8994657306041,49.19421342699588,-4.495022524222286,-120.72005773241635
1733312872141918,0.19112056,0.10495228,-9.611195,-0.01957373,0.02529595,0.3459273,-0.53922665,0.2845579,1.9585191,4.550101160574811,-1.2849969308646154,78.88926970141767,51.13985691966619,-3.464478886239343,-126.2745036483045
1733312872149918,0.19144656,0.10530557,-9.60862,-0.024273925,0.027759986,0.36163557,-0.58752435,0.30800444,1.9635334,4.974451372625659,-1.3038838087274665,77.83478620981366,53.043776506356025,-2.360859732856375,-131.81043645050175
1733312872165918,0.19194569,0.10606347,-9.603097,-0.034868058,0.03332144,0.39316264,-0.6621333,0.34759086,1.9704419,5.868349412994257,-1.31273206414447,75.59453646561612,55.868627523037375,-0.55301596356271,-140.0156090123469
1733312872173918,0.1921127,0.10647191,-9.600149,-0.040788095,0.036443416,0.4090025,-0.74000466,0.39024696,1.9799843,6.3371809205003515,-1.3014672181811122,74.40855336898922,58.6039384382618,1.4081057454197112,-148.2478870783611
1733312872181918,0.19222036,0.10690284,-9.597066,-0.04715468,0.039835934,0.42490503,-0.79582304,0.42406467,1.9878148,6.8202004447783615,-1.2790632127704529,73.17884173110794,60.37744053475125,2.8005006763324154,-153.71395473516074
1733312872197918,0.19224456,0.10784094,-9.590493,-0.061178982,0.047401115,0.45689088,-0.87651885,0.47282383,1.9991155,7.826933040829793,-1.1982933529591178,70.58889354403877,62.92078725321449,5.048116238208447,-161.8717616918233
1733312872205918,0.1921547,0.108352974,-9.587004,-0.06882834,0.0516459,0.4729598,-0.9561693,0.5305982,2.008613,8.34972408614511,-1.1386832849949042,69.22901080803095,65.34888066441465,7.4512584955266785,-169.98534200097706
1733312872213918,0.19198816,0.10890775,-9.583377,-0.07692175,0.056203246,0.48912188,-1.011677,0.5696681,2.020262,8.884703879388198,-1.0654189372353031,67.8261412501318,66.87247415538582,9.15804346995015,-175.3586947373935
1733312872221918,0.19174603,0.10949725,-9.579614,-0.08546135,0.06111888,0.505352,-1.0674493,0.61445403,2.0287669,9.431269596256413,-0.9779273717018149,66.38034612324932,68.32071460852694,10.936445691686021,-180.72439086030985
1733312872229918,0.19142494,0.110124506,-9.575746,-0.094446674,0.06640721,0.5216526,-1.1231656,0.66104156,2.0375698,9.98867753850838,-0.8757194152040526,64.89186404768492,69.67599278149588,12.77599456222029,-186.06025944555074
1733312872245918,0.19042207,0.11164674,-9.567466,-0.11395864,0.078323245,0.55471987,-1.2194979,0.7447521,2.0667052,11.133493795468855,-0.6248180256094632,61.78763780809417,71.55101606002965,15.681336849661836,-194.0141399744214
1733312872253918,0.18978871,0.112476744,-9.563117,-0.12433498,0.08493311,0.57142484,-1.2970426,0.826233,2.088122,11.719355942319526,-0.4749037949818767,60.17236406715481,73.23276835633386,18.739278828448313,-201.90921761741987
1733312872261918,0.18906328,0.113357596,-9.558629,-0.1351264,0.09200158,0.5882348,-1.3489267,0.88355875,2.1012425,12.312595960208638,-0.30798196988021187,58.515119469715266,74.15500223613901,20.865228137708097,-207.15557467994287
1733312872269918,0.18824252,0.1142932,-9.554,-0.1463417,0.09956438,0.6051662,-1.4019123,0.9453501,2.1164267,12.912375534296794,-0.12332001445294438,56.81610202463582,74.97244676101971,23.082744428408436,-212.37718063493148
1733312872285918,0.18630633,0.11635397,-9.544349,-0.1699229,0.116247065,0.63947177,-1.4738253,1.0426677,2.1440983,14.126848043300026,0.3003235123609126,53.29282587936853,75.90453181270193,26.47772042586606,-220.2047590792054
1733312872293918,0.18518512,0.1174878,-9.539323,-0.18226588,0.12543532,0.6568378,-1.5428717,1.148532,2.1707563,14.739517865807187,0.5393120167290358,51.47464637366422,76.5837278133951,29.873563046015406,-227.2724382130387
1733312872301918,0.18395707,0.118693896,-9.534152,-0.19495612,0.13522819,0.6743603,-1.5862807,1.224108,2.1903067,15.353966026562006,0.7976164066880704,49.61517526917003,76.80602009435236,32.28804874487932,-232.43388806177396
1733312872309918,0.18261969,0.11997712,-9.528834,-0.20795631,0.14562325,0.6920386,-1.6250237,1.299383,2.20979,15.968784154660426,1.0755421906345306,47.71442205457364,76.85226601230245,34.740722993307536,-237.5941518245489
1733312872325918,0.17960821,0.122795224,-9.5177555,-0.2347992,0.16834286,0.7279217,-1.6776807,1.4199754,2.2426953,17.193496918805508,1.6912061743810503,43.78937331226052,76.54454775906757,38.47899898415747,-245.31554639456965
1733312872333918,0.17793004,0.12434088,-9.5119915,-0.24861458,0.18073149,0.7461589,-1.7269216,1.5485789,2.2796466,17.800315896678786,2.029252505536169,41.76508936156241,75.85237223416003,42.25579139438983,-253.03549383726434
1733312872341918,0.17613469,0.12598516,-9.506076,-0.26260695,0.19384758,0.76459545,-1.7490461,1.6395113,2.3045688,18.401271648755348,2.387782892589085,39.69964337585379,75.11946900957001,44.816298381614516,-258.1807482135771
1733312872349918,0.1742209,0.12773402,-9.50004,-0.2767711,0.20770067,0.7832183,-1.7705187,1.7316359,2.3278594,18.99437259812865,2.7667249946327077,37.592857353726906,74.13761867166289,47.3677627554528,-263.3482527658609
1733312872365918,0.16972029,0.1325854,-9.489086,-0.30584997,0.23825435,0.82083,-1.8174293,1.9096051,2.3507288,20.148787448517478,3.5871900338000096,33.24422668640655,72.15092814930186,51.279064947956385,-271.7894167075223
1733312872373918,0.16729127,0.1351774,-9.483342,-0.32045624,0.2547262,0.839958,-1.8257834,2.058981,2.391003,20.706363901755992,4.028384431782802,31.00203946529614,69.69705665481405,55.14929974784912,-280.2734026388011
1733312872381918,0.16474305,0.1378893,-9.477419,-0.33503523,0.27198488,0.8593144,-1.8223747,2.157334,2.4195461,21.248162435612013,4.4891927520009975,28.717767284858308,67.72481673200244,57.601040027274394,-285.5340225547287
1733312872389918,0.16207606,0.14072782,-9.471314,-0.34954697,0.2900526,0.8789016,-1.8139668,2.2584646,2.4484022,21.77188329881113,4.969206269116417,26.390940625490973,65.46510789988956,60.0016896394274,-290.8533324209169
1733312872405918,0.15633626,0.14688244,-9.458805,-0.3883536,0.34224454,0.8766425,-2.4254134,3.2619963,-0.14119223,22.631836517119275,5.899131919989416,21.529171725844648,53.74707614425929,58.12035317956244,-303.8605562278953
1733312872413918,0.15320723,0.15029544,-9.452649,-0.4100636,0.3740237,0.8634143,-2.7137508,3.9723961,-1.6535296,22.872917446312748,6.2688958422654535,18.955371467293773,30.135116149183915,46.22049028450468,-321.72503231885923
1733312872421918,0.149906,0.15395348,-9.446575,-0.4309038,0.40690666,0.8502478,-2.6050246,4.1103697,-1.6458108,22.98120472849476,6.572744734067667,16.285632885621272,13.535910272751483,37.98111147527669,-333.7173227090628
1733312872429918,0.14643659,0.15786959,-9.440585,-0.45062098,0.44065484,0.83714354,-2.4646482,4.218522,-1.6380324,22.950373424353682,6.805427394171582,13.522326011579317,-3.8539130176346656,29.08533251298935,-345.41335925524436
1733312872445918,0.1390522,0.16647598,-9.428832,-0.48484653,0.50875837,0.81434196,-2.139097,4.2564697,-1.4250985,22.53461759096384,7.033494505120384,7.765381432768731,-25.98473958686511,14.254194434300118,-359.8090361756617
1733312872453918,0.13516702,0.17116807,-9.423054,-0.49901772,0.5427517,0.80443174,-1.7713978,4.2491703,-1.2387782,22.178204007303286,7.053597628087778,4.769777764932327,-44.55169795756929,2.5128903709242962,-374.4504584795504
1733312872461918,0.13117449,0.17611821,-9.417331,-0.5111551,0.57643926,0.79531187,-1.5171765,4.2109413,-1.1399835,21.722209340003946,7.015066654231041,1.7036246115267974,-56.99933341241755,-4.816371732092174,-383.26914417569117
1733312872469918,0.12709114,0.18132341,-9.411689,-0.52117974,0.6096411,0.78679746,-1.2530758,4.1502266,-1.0643005,21.17855961643598,6.904628745554894,-1.4334259688456292,-67.95621544599595,-13.804738584518372,-392.1313225465533
1733312872485918,0.11873896,0.19294612,-9.4001045,-0.5349593,0.6741158,0.7713673,-0.86122376,4.029669,-0.9643845,19.923436462328496,6.486607103717258,-7.893386532601852,-78.44519713171775,-26.126352614852227,-403.7475352347639
1733312872493918,0.11449925,0.1993322,-9.394167,-0.53862095,0.7052062,0.7644382,-0.45770404,3.8863046,-0.8661374,19.220744475804533,6.201257216292758,-11.205562566482538,-87.83649831549512,-35.66873592806252,-414.0220042350856
1733312872501918,0.11023516,0.2059424,-9.388277,-0.54022354,0.7350263,0.7579152,-0.20032375,3.7275105,-0.8153766,18.463266359084024,5.853273828068655,-14.599781058853681,-94.6847645900638,-43.497923528012834,-424.277311546393
1733312872509918,0.10596322,0.21276644,-9.382433,-0.53977567,0.7634014,0.7516819,0.05598366,3.546886,-0.7791593,17.67255359607888,5.430414396958755,-18.043711595492702,-98.83909537564257,-52.857428888737616,-430.4913170798775
1733312872525918,0.09745996,0.22700657,-9.370902,-0.53306633,0.81501687,0.74011236,0.41933355,3.2259672,-0.72309744,16.05392677797635,4.406802607415349,-25.05080023628361,-101.16417613140834,-63.97573684646286,-437.9430400494318
1733312872533918,0.09325862,0.23439504,-9.365211,-0.52705836,0.8380201,0.7348717,0.7509961,2.8754025,-0.6550848,15.217270206584947,3.8238049300122405,-28.60358266819552,-104.58207142392519,-72.87470967538854,-444.09780398898897
1733312872541918,0.0891089,0.24194211,-9.359553,-0.51947457,0.8589222,0.72993153,0.94797456,2.612762,-0.617519,14.363400866453624,3.1818782741582017,-32.18945034750708,-106.73366751641545,-80.24083198175481,-448.233459913945
1733312872549918,0.085022725,0.24963121,-9.3539295,-0.51048505,0.8776362,0.7252234,1.123689,2.3392513,-0.5885139,13.513159003469477,2.4801715645356723,-35.80633750835354,-106.28023287301846,-87.71333870281619,-452.1108951058077
1733312872565918,0.07707221,0.26535857,-9.3427725,-0.48903486,0.9079007,0.71673954,1.340637,1.891531,-0.5302429,11.87155180388976,0.9665453572494589,-43.11279451739799,-102.60044997373227,-94.60163795538834,-456.65356306527764
1733312872573918,0.07322356,0.27335763,-9.337234,-0.47698706,0.9193415,0.7130337,1.5059747,1.4301016,-0.46323237,11.071965719018172,0.17148752307470785,-46.78454185418156,-99.94826060894853,-99.38222927184388,-458.96841709794666
1733312872581918,0.06947103,0.2814226,-9.331718,-0.4643198,0.92831564,0.70967793,1.5834085,1.1217668,-0.41946766,10.294300679880974,-0.6631518961650414,-50.48123550023206,-97.20812989214967,-104.32992740496866,-462.08670575631265
1733312872589918,0.06581863,0.28953397,-9.326257,-0.4512504,0.9347879,0.70667267,1.6336738,0.80903614,-0.37565824,9.558757582141203,-1.5376819345620503,-54.203394605340705,-91.94288721747152,-109.31625479962611,-465.26988813858003
1733312872605918,0.058823474,0.30581793,-9.315381,-0.4245435,0.9402636,0.701886,1.6691815,0.3422312,-0.2991669,8.241074307780062,-3.3526803952306605,-61.7212015948477,-82.35520464757128,-113.43740379178813,-469.8629368441872
1733312872613918,0.05558198,0.3145674,-9.309619,-0.41097334,0.94008255,0.7002646,1.6962699,-0.022634862,-0.20267813,7.642338202416781,-4.285807019638126,-65.51893715037075,-74.84201317041013,-116.64082805093314,-474.71694444038155
1733312872621918,0.052444607,0.32328033,-9.303873,-0.39772147,0.93751246,0.6990891,1.6564838,-0.32126155,-0.1469329,7.089145613607961,-5.252605826097864,-69.36723146751453,-69.14907360110236,-120.84985080746728,-481.03678964297256
1733312872629918,0.04940821,0.3319387,-9.298139,-0.3849712,0.93260854,0.6984334,1.5937834,-0.61298907,-0.08196383,6.591429824616493,-6.2435934078460935,-73.2460619482651,-62.21447362393357,-123.87344771852872,-484.85381009382064
1733312872645918,0.043549176,0.34900326,-9.286721,-0.3626621,0.9152995,0.69887936,1.3943183,-1.0818168,0.02787262,5.772839830993404,-8.213874427750596,-81.0626141498437,-51.16187460144307,-123.14256374403143,-488.5345125986622
1733312872653918,0.04073776,0.3573765,-9.281028,-0.35294247,0.9035725,0.7000243,1.214955,-1.4658718,0.1431182,5.4372133209088584,-9.17573877384245,-85.00275330625892,-41.95331376056814,-120.23304326148177,-492.51739455190483
1733312872661918,0.037993837,0.36562365,-9.275326,-0.3444156,0.88997525,0.70175326,1.0658576,-1.6996561,0.21611898,5.156819046194672,-10.132583030844753,-88.97814066651551,-35.04928433927341,-119.60553212528768,-496.92342003207244
1733312872669918,0.035307422,0.3737311,-9.269609,-0.33721557,0.87465197,0.7040593,0.900004,-1.91541,0.2882555,4.948970568195568,-11.08280443080962,-92.99089639977602,-25.981059749887947,-118.77767499560842,-501.5944666575629
1733312872685918,0.030062672,0.38947746,-9.258118,-0.32715496,0.83940613,0.71044785,0.628788,-2.2028646,0.39928403,4.775614738396852,-12.908279239055782,-101.13387781264794,-10.834739362419741,-114.09217551538516,-508.93633830449505
1733312872693918,0.027480379,0.3970952,-9.252332,-0.32446542,0.81984323,0.71463275,0.33619252,-2.4453623,0.5231127,4.791404788247431,-13.772268509815197,-105.2677275341263,1.973756231322384,-107.99865884492671,-516.731215184795
1733312872701918,0.024907814,0.40453085,-9.246512,-0.32344478,0.7992282,0.7194603,0.12758002,-2.57688,0.6034449,4.8681707388517275,-14.613539371444409,-109.44634014144367,9.595743825537111,-105.1588577036515,-522.326575914672
1733312872709918,0.022311138,0.41177443,-9.24069,-0.32420847,0.77768517,0.72492874,-0.09546056,-2.692878,0.68355346,5.013968282038243,-15.432491103527408,-113.67117846018877,18.224692898314352,-102.36896651037497,-528.1047898431377
1733312872725918,0.017049266,0.4256701,-9.228907,-0.33105645,0.73250514,0.7377578,-0.42799857,-2.8237512,0.8018165,5.522406776587337,-16.938232215361058,-122.25341772465629,31.77740590931837,-94.10881948960322,-536.3899540292193
1733312872733918,0.014890338,0.43211836,-9.222533,-0.3366625,0.7091364,0.74515396,-0.70075685,-2.9210894,0.92452013,5.86682731405728,-17.59927280341949,-126.61316351593474,43.052567183743,-82.63007350730365,-544.9682239098078
1733312872741918,0.012663401,0.43836564,-9.21611,-0.344063,0.6855763,0.7531963,-0.925064,-2.9450133,1.0052919,6.265119586034922,-18.203219687910003,-131.02717829574402,49.786533997205254,-75.49336056131426,-551.7518474761576
1733312872749918,0.010354457,0.4444115,-9.209632,-0.35327438,0.66197467,0.7617374,-1.1514201,-2.9502063,1.0676384,6.722816214409557,-18.752480056389743,-135.48692538001782,57.21207854682921,-68.65754605996766,-557.4683855342286
1733312872765918,0.005435339,0.45590264,-9.196535,-0.37697408,0.6152079,0.7802967,-1.4812312,-2.9229221,1.1599548,7.838420698325157,-19.652130988345945,-144.53559374791413,69.72528024472504,-56.22818324726255,-565.5417729935193
1733312872773918,0.0028056756,0.46136934,-9.189905,-0.39101624,0.5924869,0.7903853,-1.7552711,-2.840124,1.2610778,8.475139929613452,-19.985402473919013,-149.1188723201085,79.58990391103676,-41.65893569663369,-572.909821524292
1733312872781918,4.58745e-05,0.46664575,-9.183202,-0.40659633,0.57030666,0.80096376,-1.9475108,-2.7725322,1.3223066,9.147795907685694,-20.245025440405534,-153.75519756060382,84.08199725903029,-32.45287081081519,-579.5406550619176
1733312872789918,-0.0028559046,0.47173667,-9.176422,-0.42369348,0.5487656,0.8119329,-2.1371431,-2.6926322,1.3711451,9.8471288632507,-20.43826624734877,-158.42603003134428,87.41661944562584,-24.15510086790451,-583.8540588425575
1733312872805918,-0.009130413,0.48138747,-9.162616,-0.46213734,0.50820005,0.83518046,-2.4027414,-2.5353467,1.4529712,11.326169864732869,-20.6024377418146,-167.855446100416,92.4400625926355,-10.260718404114241,-589.3385043169831
1733312872813918,-0.012523821,0.48596233,-9.155582,-0.48326656,0.48936328,0.8473394,-2.6411524,-2.3545957,1.5198662,12.089706559484934,-20.54958294908101,-172.60229698251453,95.44208684400813,6.606849091698646,-593.3563602623148
1733312872821918,-0.016100204,0.4903814,-9.1484585,-0.50551826,0.47162887,0.85990953,-2.7814617,-2.216801,1.5712677,12.850408614266398,-20.40493160423503,-177.36422920100281,95.08775684768308,18.08141810574761,-595.2415273110369
1733312872829918,-0.019867644,0.49465394,-9.141282,-0.5287768,0.45505565,0.87273717,-2.9073207,-2.0716524,1.6034542,13.602157366773339,-20.1790122756555,177.8611511511687,93.96859406336748,28.23991607244158,-596.8274559785542
1733312872845918,-0.027992215,0.5028063,-9.1266365,-0.57783705,0.42568853,0.8989609,-3.066264,-1.8354448,1.6389824,15.084813148310886,-19.507074662619722,168.28440885607122,92.6659863460967,41.99610081473603,-598.5463934435934
1733312872853918,-0.032360367,0.5067075,-9.119164,-0.6033992,0.41301638,0.91239095,-3.1952708,-1.5840194,1.6787573,15.805290661867804,-19.056153366332186,163.48669044905506,90.05968919461486,56.36516203594202,-599.7148008770198
1733312872861918,-0.037453733,0.50967556,-9.111777,-0.6300226,0.40087456,0.92598027,-3.327921,-1.5177279,1.6986653,16.490610663645885,-18.52876600001642,158.69069760131546,85.66500022226012,65.92342078947019,-599.4991059674481
1733312872869918,-0.04275758,0.5125611,-9.10428,-0.65701896,0.39014092,0.9397831,-3.3745465,-1.3417042,1.7253532,17.12636190815732,-17.93654913423783,153.90821990940344,79.46890556392951,74.02710822232422,-597.8097114890023
1733312872885918,-0.054006044,0.5181283,-9.088997,-0.7117481,0.37296513,0.9676405,-3.4205725,-1.073487,1.7410889,18.24394486420629,-16.575633714046543,144.35474407720318,69.84893475306055,85.05721376195548,-597.0922395125166
1733312872893918,-0.05995332,0.5208324,-9.081207,-0.73927087,0.3665755,0.9816523,-3.4403427,-0.7987022,1.751475,18.72906368104749,-15.807327374773447,139.58880149387554,60.639852105149835,96.03829240913684,-595.7428229159581
1733312872901918,-0.0661163,0.5234986,-9.073304,-0.76669866,0.36160094,0.9957493,-3.428474,-0.6218217,1.7621218,19.159755073807755,-14.980279434424412,134.83344862415402,53.836424095033166,103.38099254362922,-594.4191087151886
1733312872909918,-0.072493926,0.5261376,-9.065288,-0.79394907,0.3580074,1.009831,-3.406301,-0.44919175,1.760207,19.52792202886344,-14.103098048827936,130.0875419112023,46.02086938196085,109.64767319955958,-593.2383391189646
1733312872925918,-0.08584129,0.5313967,-9.048917,-0.84730744,0.3549307,1.0379246,-3.3348982,-0.19229388,1.7558559,20.060724091400097,-12.250929106534723,120.60263574019766,33.30012890854111,115.7605588933258,-592.8066356877899
1733312872933918,-0.092825636,0.5340275,-9.040562,-0.8733063,0.35532695,1.0519085,-3.2498536,0.049531456,1.7479806,20.224479677944082,-11.293375162573344,115.85857096999732,20.46944831799783,119.69424299517237,-593.0080962750434
1733312872941918,-0.10001198,0.53667223,-9.032095,-0.8987377,0.35696536,1.0658613,-3.1789317,0.20480154,1.7441063,20.317244194250367,-10.317351691128293,111.11602304755307,11.595564538285904,122.00293393063139,-592.8184903055305
1733312872949918,-0.10739552,0.5393401,-9.023559,-0.9235123,0.35976705,1.0796933,-3.0968187,0.3502108,1.7289965,20.334100929996037,-9.324265701932468,106.37498695162935,2.1070919682087323,124.13574864947806,-592.6295119904635
1733312872965918,-0.12273126,0.5447795,-9.00615,-0.97066426,0.36859897,1.1072142,-2.9469988,0.55199486,1.7200558,20.135006910684275,-7.316632128614899,96.88686944688254,-12.443376206985072,125.47709833234812,-593.0073440466762
1733312872973918,-0.13067006,0.5475668,-8.997279,-0.9928841,0.3744872,1.1207772,-2.7774794,0.7360279,1.6953795,19.928215855023616,-6.322112308964653,92.1320222263017,-25.84888195758245,124.31497745628081,-594.3559025726057
1733312872981918,-0.13877977,0.5504086,-8.988299,-1.0141366,0.38122955,1.1342165,-2.6565566,0.8427947,1.6799121,19.65628107425888,-5.345135817472305,87.36579199388527,-33.991847595591956,122.12206143654342,-595.7787790520531
1733312872989918,-0.14779592,0.5526026,-8.979912,-1.0350972,0.38809842,1.1473598,-2.620086,0.8586086,1.6429125,19.319323955006062,-4.391819129914845,82.585948279173,-42.11963990660235,119.16458594468256,-597.4804643390343
1733312873005918,-0.16625604,0.5572238,-8.9628,-1.0737311,0.4038101,1.1734037,-2.414614,0.98198086,1.6277431,18.449007860595426,-2.586004186229042,73.0033405368996,-54.3947559006648,112.86343398036269,-598.9129838920869
1733312873013918,-0.17568304,0.55965894,-8.954076,-1.0912935,0.41247788,1.1862711,-2.1952987,1.0834708,1.6084163,17.91151653200144,-1.7429629768314208,68.18350874846809,-67.18641607424823,105.38015117470262,-602.4789735539395
1733312873021918,-0.18522929,0.5621816,-8.9452305,-1.1076473,0.42157343,1.199049,-2.0442307,1.1369437,1.5972404,17.312670265588206,-0.9460942027785201,63.34350742076745,-74.85578330165414,99.60859675661258,-605.0001659625794
1733312873029918,-0.1948855,0.56479406,-8.936264,-1.1227778,0.43099466,1.2117612,-1.8913149,1.1776537,1.5890299,16.66031437077187,-0.1989433197075685,58.482462736511124,-81.54448685204186,93.39386038386895,-607.6305855320406
1733312873045918,-0.21449004,0.57029456,-8.917972,-1.1493056,0.45039296,1.2370001,-1.6579851,1.2123938,1.5774294,15.219951032279944,1.1219947390864775,48.69394065917627,-90.02270865574553,82.55862867462785,-611.7826298334287
1733312873053918,-0.224399,0.573202,-8.908648,-1.1606811,0.46028346,1.2494818,-1.4219432,1.236312,1.5602111,14.44041105850079,1.6802684422399814,43.76420081273885,-97.44249672239422,69.784212894188,-616.2174808046775
1733312873061918,-0.23438023,0.5762023,-8.899207,-1.170834,0.47014368,1.2619463,-1.269102,1.2325271,1.5580653,13.624466225166369,2.161867811570426,38.806288476614036,-101.99310416680262,60.19992116630554,-619.7390420156017
1733312873069918,-0.24442442,0.5792942,-8.8896885,-1.1797686,0.47986892,1.2744167,-1.1168271,1.2156553,1.5587955,12.777517751847515,2.5647271472021815,33.82602995319798,-105.86855916485676,50.35741695396948,-622.5323154270064
1733312873085918,-0.264665,0.58574504,-8.8703,-1.1940714,0.49856725,1.2993059,-0.89392805,1.1686459,1.5555768,11.01566995662271,3.1341413045720987,23.806175724343078,-110.11548720155024,35.58838483561983,-626.2408893034316
1733312873093918,-0.27484357,0.589098,-8.860432,-1.199491,0.5073449,1.3117735,-0.67745143,1.097206,1.5584527,10.119357630775788,3.298802341912572,18.77060821358568,-112.0390407308655,20.582629667559146,-629.4459388446745
1733312873101918,-0.28504953,0.5925308,-8.850448,-1.2038169,0.5156354,1.3242836,-0.54073334,1.0363086,1.5637575,9.22707551738404,3.3807161219935997,13.72005899669361,-111.53526417396841,10.239222510128455,-631.3186521115088
1733312873109918,-0.29653335,0.59595907,-8.840364,-1.2078139,0.523341,1.3367603,-0.499621,0.96320355,1.5595852,8.347497358689969,3.377442398275885,8.656014694460147,-109.94726983675882,-0.40921546471431913,-633.0055377791829
1733312873125918,-0.31945258,0.6030233,-8.819888,-1.2128077,0.53687537,1.3619303,-0.31211227,0.8458979,1.573123,6.648651083971969,3.112167966141537,-1.5013457561198846,-106.17789216987501,-16.57965200839676,-634.8350281612519
1733312873133918,-0.33087525,0.60664755,-8.809492,-1.2139156,0.5425508,1.3747385,-0.13849139,0.7094293,1.6010253,5.835503022699043,2.8523824874443884,-6.593580601344008,-101.64350765911577,-32.47318483714356,-636.5293556530154
1733312873141918,-0.34226558,0.6103255,-8.798978,-1.2141614,0.54740804,1.3876802,-0.030726193,0.60715526,1.6177146,5.05552750137775,2.512615872229887,-11.692243799537646,-97.49694016516162,-42.47082690181268,-637.3328997742049
1733312873149918,-0.35361814,0.61405027,-8.788344,-1.2136275,0.5514042,1.4007133,0.0667423,0.4995167,1.6291438,4.319127888613908,2.099003904648922,-16.79643140681486,-92.04995159548024,-51.70149594762058,-638.0234509096517
1733312873165918,-0.37619078,0.6216101,-8.766718,-1.2105354,0.5565686,1.4273094,0.19325314,0.32277775,1.6622542,3.0135480498993377,1.0724027403155467,-27.018638788477094,-81.59873991966064,-64.16257277083596,-638.8879613538898
1733312873173918,-0.38740283,0.62542933,-8.755722,-1.2081289,0.5576675,1.44091,0.30080974,0.1373589,1.7000734,2.455833889860766,0.4649692708318987,-32.13701785018437,-69.71427000482146,-75.92918368545601,-639.7973827134091
1733312873181918,-0.398561,0.62926394,-8.744602,-1.2052565,0.55776286,1.4547074,0.35905835,0.011920928,1.7246752,1.9650233024099262,-0.2032859593911279,-37.26118487484596,-61.351323431354984,-83.53190377787834,-640.5208780826986
1733312873189918,-0.4096628,0.63310564,-8.733398,-1.2020118,0.55684483,1.4687525,0.40557978,-0.114753835,1.7556398,1.543819495278293,-0.9284712373572466,-42.3922094481726,-52.650475891454136,-90.64815974576484,-641.3780716658304
1733312873205918,-0.4316809,0.6407874,-8.710605,-1.1947019,0.55169314,1.4977186,0.45686957,-0.32198054,1.8103793,0.92530472122246,-2.512757735050791,-52.67822252609588,-38.65717337848957,-99.0179061058465,-642.8758173702049
1733312873213918,-0.44260058,0.6446033,-8.699011,-1.1908164,0.5474937,1.5126469,0.48568842,-0.52493066,1.8660425,0.7356967834802712,-3.3492051441759005,-57.837236836488096,-23.70099221777359,-104.55592614063873,-644.8767887990273
1733312873221918,-0.4534607,0.6483908,-8.687284,-1.1868818,0.5421957,1.5278293,0.4918277,-0.66225225,1.8977969,0.6305606971542427,-4.203793086803898,-63.010212007022844,-13.142010790753575,-106.82349282849975,-646.6218963168429
1733312873229918,-0.46426213,0.652141,-8.675422,-1.1830199,0.53581965,1.543281,0.482738,-0.79700345,1.9314586,0.6127988459268691,-5.072206717868991,-68.1997613318214,-2.2202314034216997,-108.55170388313653,-648.693665599821
1733312873245918,-0.4843144,0.6593639,-8.652775,-1.1752763,0.5198884,1.5747733,0.48397478,-0.995703,1.968272,0.8455534648852598,-6.837874244293326,-78.64084402253741,14.547163684899422,-110.35422040152098,-652.5676681697499
1733312873253918,-0.49428442,0.66288793,-8.641228,-1.1718538,0.5103745,1.591057,0.4278123,-1.1892393,2.0354538,1.0943678187547483,-7.72070534625897,-83.89830772117566,31.101794233686064,-110.35388774570542,-657.1829623297808
1733312873261918,-0.504221,0.66634256,-8.6295185,-1.1688365,0.49986112,1.6076527,0.37716326,-1.3141706,2.074465,1.4270400297837766,-8.588268024634909,-89.1834266300073,41.584026378628536,-108.44533479699243,-660.6398636039568
1733312873269918,-0.5141304,0.66972286,-8.617644,-1.1663326,0.4884584,1.6246797,0.312984,-1.4253407,2.1283774,1.839764955721382,-9.428981713222473,-94.49860786937131,51.59061574220067,-105.08921107344557,-664.3976549205008
1733312873285918,-0.53387827,0.6762246,-8.593393,-1.1632286,0.46298116,1.6597598,0.1939982,-1.5923269,2.1925046,2.901203129459027,-10.995727870894937,-105.23327326094403,66.3398858586028,-97.92163485452895,-670.9165869732943
1733312873293918,-0.5437277,0.6793322,-8.581012,-1.1627923,0.4490426,1.6777936,0.054538246,-1.742322,2.2542326,3.549419279786989,-11.709792337458161,-110.65179106483879,81.02701879099529,-89.25805832040308,-677.3147254868463
1733312873301918,-0.5535693,0.682336,-8.568458,-1.163186,0.43439892,1.6962091,-0.04920363,-1.8304585,2.3019314,4.273424882538581,-12.370361455787359,-116.10537791624877,90.50070034394908,-82.57113979114965,-681.6983564262463
1733312873309918,-0.5634098,0.6852305,-8.555765,-1.1644803,0.4191217,1.714945,-0.1617968,-1.9096508,2.3419857,5.065831057960143,-12.97121246134474,-121.59416957255617,99.05077192769511,-75.10637569467258,-686.0989570384249
1733312873325918,-0.58311814,0.69067335,-8.529843,-1.1700097,0.38704804,1.7535713,-0.3455877,-2.0046046,2.4141445,6.8100054131751095,-13.967176752056288,-132.67406887999917,109.01089720093542,-62.24776816947173,-692.4937067151878
1733312873333918,-0.5929934,0.69322395,-8.516609,-1.1743466,0.37049726,1.7733831,-0.54210424,-2.0688474,2.4764836,7.740598475417897,-14.349205257102238,-138.2612098033372,116.3241327803485,-47.75356313074369,-698.392615417256
1733312873341918,-0.60290015,0.6956512,-8.503192,-1.1798344,0.35369503,1.7935189,-0.6859749,-2.1002777,2.51697,8.701563825366248,-14.645342142711112,-143.87846070325276,120.12066874354387,-37.017110701109445,-702.1563624894411
1733312873349918,-0.61284775,0.69795346,-8.489589,-1.1864619,0.33675092,1.8139397,-0.8284449,-2.1180136,2.5525985,9.68724388987676,-14.850278508932664,-149.51930380136363,123.21000806381379,-25.617045777693882,-705.10538726386
1733312873365918,-0.63291055,0.70147437,-8.4609165,-1.2032262,0.30222484,1.8555945,-1.0477676,-2.1578798,2.6034265,11.701194499273516,-14.97918174514056,-160.85142569986473,125.87191308729732,-8.056452262993547,-708.2576186563185
1733312873373918,-0.6430398,0.70305437,-8.446332,-1.2133406,0.28524578,1.8767879,-1.2643038,-2.1223834,2.649173,12.706482903440204,-14.906023961814173,-166.53530404773994,125.66105052083599,9.144722915798399,-710.4847934844029
1733312873381918,-0.6532465,0.7045165,-8.431568,-1.2245924,0.268629,1.8982283,-1.4064758,-2.077095,2.6800482,13.692509001274036,-14.744362506808296,-172.2278529265195,123.25326222922905,20.207681875734675,-711.5686098474406
1733312873389918,-0.66353965,0.7058636,-8.416623,-1.2369714,0.25247166,1.9199238,-1.5473663,-2.0196698,2.7119367,14.646415632272177,-14.49555400813912,-177.92482219475008,119.23832887476769,31.101062333646993,-712.1211585288256
1733312873405918,-0.68443006,0.7082231,-8.38618,-1.2649986,0.2219833,1.9638045,-1.7516985,-1.9055222,2.7425437,16.418880729068526,-13.733945217936352,170.68639617127664,110.7790685497718,47.600549387673006,-711.7988521233307
1733312873413918,-0.69504416,0.70924544,-8.370681,-1.2805175,0.20786878,1.9859303,-1.9398628,-1.7643142,2.76573,17.222764425962712,-13.222443341782604,165.0057342651843,100.4854621117731,63.937734519218324,-710.0827382615427
1733312873421918,-0.7057778,0.7101732,-8.354996,-1.2969059,0.19467287,2.0081334,-2.048552,-1.6494895,2.7753859,17.963543308117256,-12.629685028281909,159.33675446131278,92.59736026931822,74.09478918758705,-708.6224754839367
1733312873429918,-0.7166376,0.7110137,-8.339165,-1.3140842,0.18245657,2.0303938,-2.1472871,-1.5270374,2.7825532,18.63464799742942,-11.965504320719319,153.6803634970426,83.88808616402018,83.02258844532362,-707.0488705337739
1733312873445918,-0.73875874,0.71246517,-8.30694,-1.3504342,0.1613603,2.0748863,-2.2718756,-1.3185171,2.78078,19.73962231712483,-10.466044637800483,142.40302569372537,69.06089498096333,93.71623018242732,-704.8336127073275
1733312873453918,-0.7500295,0.71309406,-8.290548,-1.3693626,0.15261836,2.097124,-2.366051,-1.0927413,2.779722,20.15905420163156,-9.646729648661074,136.78168324825378,52.4289855633409,102.41437364242611,-702.6678056839485
1733312873461918,-0.761445,0.71367085,-8.27397,-1.3886403,0.14511551,2.1193187,-2.4097114,-0.9378567,2.7743278,20.481744601694576,-8.78719512395365,131.17253249463892,40.33630000787712,107.44181558842791,-701.1438442018568
1733312873469918,-0.7730076,0.71420556,-8.257206,-1.40815,0.13892512,2.1414454,-2.438709,-0.77379864,2.765834,20.704743287502424,-7.892146511715094,125.57589058032636,27.874835725981228,111.88107652981961,-699.5802392890702
1733312873485918,-0.79719967,0.71450984,-8.223323,-1.4477108,0.12980647,2.1852841,-2.4725497,-0.56991535,2.739921,20.855993985312146,-6.029942400678242,114.41529300438877,9.453168613107596,116.3877569398032,-697.5373484960993
1733312873493918,-0.8098137,0.7143183,-8.206202,-1.4674883,0.12694193,2.2069027,-2.472192,-0.35806742,2.7023253,20.79108754780847,-5.089607550993633,108.85174709700469,-8.113304687959555,117.54185621057616,-695.4432384230097
1733312873501918,-0.8225625,0.7141341,-8.188896,-1.4869075,0.12537494,2.2283573,-2.4273992,-0.19587389,2.6818213,20.633784505828682,-4.15757315279173,103.28883629606891,-19.66288024747353,116.50429977523784,-695.3638501169727
1733312873509918,-0.8354433,0.71396667,-8.171406,-1.5058728,0.12505366,2.2496328,-2.3706703,-0.04016049,2.6594398,20.382647002692476,-3.243880939640707,97.7233766088007,-31.392187892025717,114.2115266438779,-695.6824609085255
1733312873525918,-0.8615848,0.71371794,-8.135884,-1.541932,0.12792864,2.2916663,-2.2536962,0.17968658,2.6270895,19.594731909772953,-1.4976673207286841,86.57906916117925,-49.244693307470115,109.13835118200141,-696.5192154763412
1733312873533918,-0.8748347,0.7136534,-8.117854,-1.5587773,0.1309915,2.3123853,-2.105668,0.38285738,2.5898812,19.064102915977045,-0.6762428479657283,80.99797157599899,-66.32862422448876,102.67805909536949,-697.6371981475314
1733312873541918,-0.8881955,0.7136387,-8.099648,-1.5746707,0.13501088,2.3329108,-1.9866674,0.50242245,2.5656817,18.4528943429971,0.10111417295839055,75.40914431699079,-76.40107162249296,97.16962761551486,-698.6034073760256
1733312873549918,-0.90166175,0.7136775,-8.081309,-1.5895385,0.13986483,2.353202,-1.8584727,0.6067436,2.5364158,17.771288089705823,0.8248318890748816,69.81067811135436,-85.20078166140975,90.46471451456138,-699.8082757045526
1733312873565918,-0.9288709,0.71394604,-8.044114,-1.6159564,0.1516791,2.3930092,-1.651123,0.73839164,2.4879425,16.2268265532501,2.0723931469377996,58.57980364153081,-96.52884602848285,77.97257861643237,-701.9296543639723
1733312873573918,-0.94259614,0.71418434,-8.025262,-1.627374,0.15837167,2.4126832,-1.4272033,0.83657163,2.4592578,15.371481572936315,2.580243898752035,52.94519210564454,-106.91812253922281,63.481343976779414,-704.3264419857838
1733312873581918,-0.9563892,0.71449614,-8.006243,-1.6375449,0.16545413,2.4321473,-1.271352,0.8853077,2.433002,14.466622628186682,3.005454505060528,47.29902239038352,-113.10736809370421,53.15132578856166,-705.7712144076276
1733312873589918,-0.9702404,0.7148832,-7.987057,-1.6464294,0.17276701,2.4514627,-1.1105686,0.9141098,2.4144351,13.521175345355745,3.347017457087055,41.6436570156134,-118.18091035386713,42.69536900331589,-706.9206718462647
1733312873605918,-0.9980776,0.71588564,-7.948234,-1.6603616,0.1876184,2.489596,-0.8707642,0.9282119,2.3833215,11.5596422334389,3.774439256754417,30.31277019036041,-122.59581949480277,26.713862479210107,-708.1804265783118
1733312873613918,-1.0129126,0.7160538,-7.9286027,-1.6660858,0.19463685,2.508355,-0.7155239,0.8773058,2.3448765,10.56993396367675,3.8535466933599465,24.640111117183633,-123.71353372026881,9.888429575691205,-709.0823841470975
1733312873621918,-1.0277518,0.71630317,-7.908812,-1.6705569,0.20138788,2.5270395,-0.55888295,0.8438788,2.3355782,9.588636400398794,3.8362435911224555,18.964419108309787,-122.66219540974443,-2.16288777968638,-709.4615011092304
1733312873629918,-1.0425862,0.7166305,-7.888861,-1.6738265,0.20780034,2.5456393,-0.40869412,0.80155766,2.3249686,8.621439190751143,3.721038482876436,13.287355740626452,-120.89965120595622,-14.400638530752444,-709.6329209604168
1733312873645918,-1.0722071,0.71750224,-7.8484836,-1.6769527,0.2191344,2.5827463,-0.19539146,0.7083788,2.319187,6.756130851801367,3.2087881541959256,1.9388110791876798,-116.58177118436103,-32.0156455425319,-709.2840413399233
1733312873653918,-1.0869776,0.7180362,-7.828058,-1.6769141,0.22383188,2.6013157,0.004827976,0.58718395,2.3211837,5.876491818703356,2.825054022358431,-3.7287880232066004,-109.95487913725141,-47.96676647968686,-708.4498877992851
1733312873661918,-1.1017114,0.71862715,-7.8074737,-1.6758994,0.22776744,2.6198835,0.12683868,0.49194506,2.320975,5.047371120003048,2.364066229994742,-9.390613796873017,-103.64008733753847,-57.623474045461066,-707.728221708302
1733312873669918,-1.1164021,0.7192681,-7.786774,-1.6740621,0.2308743,2.6385128,0.22965668,0.38835776,2.328664,4.279722957892441,1.8282067173989678,-15.046306891766324,-95.95602026382583,-66.98243907447178,-706.9616368616634
1733312873685918,-1.1456336,0.7206739,-7.7448974,-1.6681632,0.23439185,2.6758878,0.3686845,0.21984707,2.3359358,2.9608779761038204,0.5367846285755152,-26.341913329272895,-82.42781136178881,-80.71388055146578,-705.9754023441608
1733312873693918,-1.160165,0.7214227,-7.723719,-1.6642888,0.2346754,2.6947584,0.4843026,0.035444275,2.358824,2.418794072048115,-0.20889619567681939,-31.98437733429054,-67.76048800696313,-93.21010303154182,-705.3080006272054
1733312873701918,-1.1746348,0.72218925,-7.7023807,-1.6599183,0.23392203,2.7137728,0.5463064,-0.094171606,2.3767948,1.9582682661695456,-1.0071374301045741,-37.624632606661756,-57.56572573482119,-99.78015430346935,-705.0319090464021
1733312873709918,-1.1890403,0.72296464,-7.68088,-1.655164,0.2321013,2.732951,0.5942881,-0.22759101,2.397269,1.5822241441440443,-1.8457548078227284,-43.26458096433386,-47.00551525318767,-104.8271722147693,-704.993544709013
1733312873725918,-1.2176516,0.72450536,-7.6374316,-1.6448989,0.22516212,2.7718735,0.64156944,-0.43369922,2.4326591,1.1056761086186087,-3.60827582926833,-54.55454080034998,-29.784252220339738,-110.15756384035011,-705.6224897510076
1733312873733918,-1.2318914,0.72533476,-7.615824,-1.6396036,0.22023825,2.7915146,0.6619095,-0.6154831,2.4551451,1.0177463634695485,-4.520858010653126,-60.21090231534403,-10.991218143632512,-114.07277267309944,-707.0451893742563
1733312873741918,-1.2460626,0.72613657,-7.5940423,-1.6343335,0.21421273,2.8113737,0.6587654,-0.75319034,2.4823844,1.0353041807834094,-5.447558949039946,-65.8819286592495,2.1947271642326056,-115.83761729835255,-708.8782929881833
1733312873749918,-1.2601666,0.72690165,-7.572081,-1.6291759,0.20708804,2.831491,0.6446987,-0.8905865,2.5146601,1.156595928334923,-6.377541679641662,-71.56880345688977,15.16146844393921,-116.24784132521452,-710.8593497050342
1733312873765918,-1.2881838,0.72834176,-7.527621,-1.6196474,0.18993884,2.872504,0.59553236,-1.0718247,2.5633125,1.688393130254598,-8.197236509195266,-83.00701671570586,33.23732511997969,-113.73092684710019,-714.888328676005
1733312873773918,-1.3021023,0.7289735,-7.505118,-1.6154723,0.17985766,2.8934362,0.52188337,-1.2601483,2.6165245,2.090821677540494,-9.063685213046641,-88.76410691341383,50.30356841073698,-108.30608798142187,-719.6362747134957
1733312873781918,-1.3159664,0.7295357,-7.482431,-1.6118277,0.168849,2.9146645,0.45557317,-1.3760812,2.653539,2.5843928153015256,-9.889698286816783,-94.54870888643366,61.69639222012896,-103.25163422126776,-723.0752466274797
1733312873789918,-1.3297808,0.7300208,-7.4595985,-1.6088074,0.15695748,2.9360955,0.3775358,-1.486441,2.678871,3.1713891710015836,-10.668564953971359,-100.3625430172958,73.37454446250725,-97.35833339432205,-726.729266357768
1733312873805918,-1.3572842,0.7307325,-7.4133677,-1.6049174,0.13080966,2.9796314,0.24312733,-1.6342382,2.7209966,4.614843063048862,-12.053713947828756,-112.0829959035233,90.21586825295488,-86.57181211608729,-732.5283053892183
1733312873813918,-1.3709861,0.73094684,-7.389966,-1.604178,0.11669889,3.0018559,0.092431895,-1.7638466,2.778053,5.449540903871075,-12.641992288762122,-117.989785678656,104.33723010277662,-73.5347926166707,-738.3487218915878
1733312873821918,-1.3846644,0.73105985,-7.366371,-1.6043332,0.10201571,3.024348,-0.019401312,-1.8353974,2.811521,6.339536113272507,-13.149844427211189,-123.92643767396191,111.24940117517909,-63.48151730613339,-742.0814994132393
1733312873837918,-1.4119828,0.7310123,-7.318593,-1.6076442,0.071514964,3.0701532,-0.20693986,-1.9062966,2.8628259,8.246528256882824,-13.901364126270062,-135.8843522978298,119.18700897564482,-46.96998119117962,-747.3696639917423
1733312873845918,-1.4256399,0.73082304,-7.294447,-1.6109046,0.05579752,3.0933628,-0.40754673,-1.9646803,2.9011962,9.254897405502808,-14.13466188602122,-141.89927479499207,126.04614357749789,-29.162219968894785,-751.8653121452846
1733312873853918,-1.4393072,0.7305207,-7.2701006,-1.6152403,0.039904457,3.1167426,-0.54197013,-1.986633,2.922475,10.292590746329948,-14.265964825886723,-147.93090512197108,129.71166760339264,-16.412867483187718,-753.953790872378
1733312873861918,-1.4525596,0.72912365,-7.244863,-1.6203525,0.02328955,3.1404724,-0.63902134,-2.0768633,2.966225,11.346439924081812,-14.292495891312951,-153.97432970290026,131.73114721898287,-3.316383178278657,-755.4280726161483
1733312873869918,-1.4658478,0.7276299,-7.21944,-1.6265961,0.006728225,3.164362,-0.78044826,-2.0701656,2.9861925,12.395558562945888,-14.216939685441183,-160.0184371031668,131.13982985800962,9.444525733971194,-755.5134250333167
1733312873885918,-1.4925671,0.72435355,-7.168031,-1.6423631,-0.025699647,3.2126598,-0.9854361,-2.026742,3.0186174,14.410224249615283,-13.767189433899736,-172.11265034953837,125.91660541683717,28.109390721340436,-755.8883278982231
