timestamp,x,y,z,vx,vy,vz,ax,ay,az,roll,pitch,yaw,roll_rate,pitch_rate,yaw_rate
1733312833272244,-0.19951072,0.23319389,-9.570466,-0.0029994564,0.048386917,-0.27219686,0.0,0.0,0.0,0.0441654295302671,0.1264966469355269,91.70813201446126,0.0,0.0,0.0
1733312833288244,-0.20067748,0.23486082,-9.572621,-0.004521281,0.04804264,-0.27385935,-0.09511404,-0.021517275,-0.10390579,0.03146754084988507,0.14701008475016042,91.70519541247792,-0.7936180425238769,1.2820898634145959,-0.1835376239585254
1733312833296244,-0.20125268,0.23567711,-9.573755,-0.005257729,0.04786491,-0.2745656,-0.09205599,-0.022216232,-0.08828192,0.024213805225598316,0.15682064545256105,91.70368609536764,-0.9067169530358444,1.2263200878000777,-0.18866463878543735
1733312833304244,-0.2018281,0.23647654,-9.574925,-0.005951705,0.047650047,-0.27523515,-0.08674699,-0.026857944,-0.083692364,0.016302929688905083,0.16611634305274703,91.70207406441516,-0.9888594420866543,1.1619622000232488,-0.20150386906048803
1733312833312244,-0.20239818,0.23726478,-9.57613,-0.0066375025,0.047412865,-0.27580863,-0.08572469,-0.029647721,-0.07168576,0.008050269564375446,0.17512240096080922,91.70105691192752,-1.0315825155662044,1.125757238507774,-0.12714406095301165
1733312833328244,-0.202724,0.23893471,-9.578693,-0.0075547392,0.046814084,-0.2770379,-0.057327297,-0.0374238,-0.076828524,-0.010003256043119567,0.19314506880819782,91.6972934928161,-1.1283453504684382,1.126416740461786,-0.23521369446434467
1733312833336244,-0.20289205,0.23974942,-9.580024,-0.007987473,0.046488084,-0.2775764,-0.054091737,-0.040750016,-0.06731227,-0.019694085827145578,0.2021365460858646,91.6948206178775,-1.2113537230032512,1.123934659708349,-0.30910936732501537
1733312833344244,-0.20306331,0.24055086,-9.581383,-0.008403445,0.046145674,-0.27802286,-0.051996436,-0.042801253,-0.05580857,-0.029853633221467106,0.21079139911938394,91.69226591454469,-1.2699434242901912,1.0818566291899183,-0.31933791660111965
1733312833352244,-0.20323755,0.24133909,-9.582771,-0.008805043,0.045792364,-0.27838212,-0.0501998,-0.04416378,-0.04490837,-0.04023066575638116,0.21893528303655427,91.6898206461445,-1.2971290668642566,1.017985489646289,-0.30565855002363895
1733312833368244,-0.20359421,0.24287651,-9.585632,-0.009558176,0.045027353,-0.2791857,-0.047070786,-0.047813166,-0.05022436,-0.061743557256894094,0.23442179100848504,91.68464957902205,-1.3445557187820585,0.9679067482456732,-0.32319169515331175
1733312833376244,-0.20377624,0.24362576,-9.587102,-0.00992187,0.04460211,-0.2795116,-0.04546181,-0.053155232,-0.040736046,-0.07252451495439516,0.24181999031318177,91.68212930203546,-1.3476197121876328,0.9247749130870921,-0.3150346233229822
1733312833384244,-0.20396213,0.24436077,-9.588598,-0.010262499,0.044195917,-0.27975386,-0.042578552,-0.050774306,-0.030282883,-0.08299067256276316,0.24904052701050594,91.67958121177374,-1.3082697010460007,0.9025670871655225,-0.3185112827154302
1733312833392244,-0.20415005,0.2450833,-9.590117,-0.01059792,0.043784156,-0.27987853,-0.041927673,-0.051470004,-0.015582888,-0.09327384379144692,0.2559583752010193,91.67659617018751,-1.285396403585469,0.8647310238141673,-0.3731301982790482
1733312833400244,-0.2043399,0.2457935,-9.5916605,-0.010933043,0.04336401,-0.28007284,-0.04189042,-0.052518208,-0.02428889,-0.1029850866471229,0.2625412775284247,91.67341253334334,-1.2139053569594989,0.8228627909256788,-0.39795460552149564
1733312833416244,-0.20472501,0.24717742,-9.594811,-0.011555231,0.042492546,-0.2802115,-0.038886733,-0.054466534,-0.008666888,-0.12271178678916322,0.27436457150169336,91.6672234598274,-1.2329187588775201,0.7389558733292917,-0.3868170947465845
1733312833424244,-0.20491987,0.2478514,-9.596418,-0.011845716,0.042037826,-0.2802129,-0.036310636,-0.05684001,-0.00017508863,-0.13240472813364057,0.27981992873453654,91.66419704328055,-1.2116176680596664,0.6819196541053919,-0.3783020683541328
1733312833432244,-0.20511614,0.2485135,-9.598044,-0.012128736,0.04158324,-0.2801785,-0.03537745,-0.056823246,0.0043027103,-0.14167214799533198,0.2850155246554076,91.66119120551089,-1.158427482711427,0.6494494901088865,-0.3757297212083528
1733312833440244,-0.20531358,0.24916402,-9.59969,-0.012386614,0.04113157,-0.2801877,-0.032234818,-0.056458633,-0.0011511147,-0.1503903541934084,0.2901247305912327,91.65816498162121,-1.0897757747595551,0.6386507419781382,-0.37827798621027203
1733312833456244,-0.20433477,0.25070235,-9.604236,-0.012367985,0.040274628,-0.2804262,0.0011643278,-0.05355896,-0.014906748,-0.16639729841486148,0.2988986513859545,91.65205731419893,-1.0004340138408157,0.5483700496701117,-0.3817292138922579
1733312833464244,-0.20387374,0.25144953,-9.606513,-0.012371641,0.03984522,-0.2804562,-0.0004569301,-0.05367584,-0.0037476418,-0.17446586705378433,0.3025152063195515,91.64829293057537,-1.0085710798653584,0.45206936669961933,-0.47054795294595825
1733312833472244,-0.20342861,0.25218254,-9.608792,-0.012365531,0.039415974,-0.28043318,0.00076368445,-0.053655818,0.0028759239,-0.18243859342678184,0.3059101516754512,91.64453537141482,-0.996590796624688,0.4243681694874696,-0.46969489506922524
1733312833488244,-0.20258398,0.25360703,-9.613357,-0.012352832,0.03854971,-0.28020787,0.0007937196,-0.054141503,0.014081596,-0.19677384087601446,0.3124718178569675,91.63727276433855,-0.8959529655770395,0.41010413634476517,-0.4539129422664498
1733312833496244,-0.20218359,0.25429907,-9.615641,-0.012331346,0.038106948,-0.2799719,0.0026857012,-0.055345237,0.029496847,-0.2026797235502615,0.31555166577671623,91.63367203539563,-0.7382353342808784,0.38498098996859975,-0.4500911178645384
1733312833504244,-0.20179705,0.25497788,-9.617924,-0.012299412,0.037664182,-0.27962828,0.003991765,-0.055345703,0.042952593,-0.20818901496299336,0.3185342629504792,91.63015352694606,-0.6886614265914812,0.3728246467203673,-0.43981355619626505
1733312833512244,-0.20142388,0.25564378,-9.620206,-0.012252809,0.037218392,-0.2791648,0.0058254222,-0.05572382,0.05793571,-0.21283153637009813,0.3212715306065862,91.62668973356581,-0.5803151758880987,0.3421584570133773,-0.43297417253088333
1733312833528244,-0.2007202,0.25694242,-9.624765,-0.012170907,0.036328223,-0.2781331,0.0051188394,-0.05563558,0.06448105,-0.21972063611932194,0.32634217326976517,91.61970011232063,-0.43056873432648757,0.3169151664486851,-0.4368513278244357
1733312833536244,-0.20038907,0.25757545,-9.627042,-0.012158041,0.035862774,-0.2775046,0.0016082776,-0.058181114,0.07856264,-0.22246555484403016,0.3287284562411237,91.61583329281652,-0.3431148405885291,0.29828537141981065,-0.48335243801313416
1733312833544244,-0.20006992,0.25819623,-9.629314,-0.012142338,0.035395864,-0.27679288,0.0019628787,-0.058363654,0.08896365,-0.2245815316633077,0.3309897665791374,91.61188396250627,-0.2644971024096894,0.2826637922517229,-0.4936662887814136
1733312833552244,-0.19976227,0.25880486,-9.631583,-0.012110416,0.03491636,-0.27601138,0.0039902516,-0.059938055,0.09768828,-0.22599039145540203,0.3332959013074462,91.60820840690369,-0.1761074740117944,0.28826684103859473,-0.45944445032354114
1733312833560244,-0.19946581,0.2594016,-9.633847,-0.01209952,0.034435485,-0.27530164,0.0013619427,-0.060109418,0.08871778,-0.2266776996705214,0.3355550248579755,91.6045119831907,-0.08591352688992034,0.28239044381616174,-0.4620529641211526
1733312833576244,-0.19795522,0.26133245,-9.638605,-0.011834491,0.033830542,-0.2736501,0.016564328,-0.037808903,0.103220336,-0.2267682150945739,0.3398106267868569,91.5980075845721,-0.005657214003280802,0.26597512055509065,-0.4065249136628379
1733312833584244,-0.19723311,0.26226828,-9.640971,-0.011705982,0.03350683,-0.2727719,0.016063685,-0.0404641,0.10977685,-0.22639960853109597,0.3416537432371471,91.5952133597651,0.046075820434739435,0.2303895562862701,-0.3492781008754633
1733312833592244,-0.19653237,0.26318482,-9.64333,-0.011600854,0.033162974,-0.2718468,0.013140961,-0.04298193,0.11563673,-0.22551242230596882,0.34335833277843275,91.59259646305858,0.11089827814089677,0.2130736926607089,-0.32711208831459937
1733312833608244,-0.19521122,0.26495394,-9.64802,-0.0114352545,0.03246968,-0.2699019,0.010349962,-0.043330945,0.121556215,-0.2223344433270924,0.3470108694039924,91.58695992917995,0.19862368617977527,0.22828353909747484,-0.35228336741436056
1733312833616244,-0.19458051,0.26581123,-9.650352,-0.011357913,0.03212096,-0.26886615,0.00966771,-0.043589618,0.12946874,-0.22021213868371267,0.3491525200760497,91.58405626702806,0.26528808042246843,0.26770633400716753,-0.3629577689870208
1733312833624244,-0.19396906,0.26665077,-9.652673,-0.011284506,0.03173154,-0.26771045,0.009175856,-0.0486779,0.14446303,-0.21719369400156488,0.3514292567750779,91.58136463982255,0.37730558526847396,0.28459208737852226,-0.3364534006877666
1733312833632244,-0.19337629,0.2674727,-9.654984,-0.011210643,0.031331435,-0.26649758,0.009232899,-0.05001295,0.15160814,-0.2133848978593722,0.3538969494817017,91.57870696123142,0.4760995177740833,0.30846158832797765,-0.3322098238917871
1733312833648244,-0.19224504,0.26906493,-9.659574,-0.011079296,0.030489426,-0.26398936,0.008209201,-0.052625544,0.15676394,-0.20440023024842016,0.3590095784194893,91.5736583518085,0.5615417256845024,0.31953930861172375,-0.3155380889320832
1733312833656244,-0.19170567,0.26983586,-9.661851,-0.011027992,0.03006724,-0.26268157,0.0064129704,-0.05277316,0.16347317,-0.19953194689477313,0.36185889089948775,91.57123309421927,0.6085354192058788,0.35616405999980705,-0.30315719865491003
1733312833664244,-0.19120005,0.27058575,-9.664117,-0.01104894,0.029629096,-0.26137108,-0.0026185296,-0.054768052,0.16381218,-0.19447377157141035,0.3649230394230086,91.56882859913442,0.6322719154203478,0.3830185654401014,-0.30056188560637903
1733312833672244,-0.19071126,0.27131963,-9.666371,-0.01107148,0.029198559,-0.25997484,-0.0028174834,-0.05381717,0.17452984,-0.18887929662760483,0.36793158583490376,91.5657131729604,0.6993093679756895,0.37606830148690246,-0.3894282717514432
1733312833680244,-0.1902389,0.2720379,-9.668613,-0.011105748,0.028753955,-0.25868034,-0.0042835018,-0.05557551,0.1618117,-0.18291629975922774,0.3712525942891654,91.56275525019656,0.745374608547135,0.4151260567826997,-0.3697403454808617
1733312833696244,-0.19073111,0.27371344,-9.67383,-0.011727093,0.027845286,-0.25614667,-0.038834054,-0.056791816,0.15835463,-0.17022963650296224,0.37810085913548047,91.55706462176786,0.7929164535165933,0.4280165528946937,-0.35566427679334517
1733312833704244,-0.19166417,0.27466324,-9.676785,-0.012334319,0.027399978,-0.25489753,-0.07590325,-0.05566352,0.15614182,-0.1627513272891787,0.3811025263500177,91.55430460594049,0.9347886517229429,0.37520840181714804,-0.3450019784223656
1733312833712244,-0.19258234,0.2755906,-9.6797085,-0.012957211,0.026943333,-0.25358227,-0.07786147,-0.057080526,0.16440822,-0.15500286812422653,0.3842254065124926,91.55183874038103,0.9685573956190224,0.3903600203093677,-0.30823319493252366
1733312833728244,-0.1943766,0.2773793,-9.685465,-0.014191977,0.02597014,-0.2511227,-0.077172875,-0.06082456,0.15372224,-0.1399349713419125,0.3906895813167574,91.54716618377087,0.9417435488946279,0.4040109252665496,-0.29203478813505385
1733312833736244,-0.19526051,0.27823988,-9.688298,-0.01483126,0.025478996,-0.24975538,-0.07991038,-0.061393015,0.1709163,-0.13326182203580952,0.3941098520760098,91.54474801458367,0.8341436632628708,0.4275338449065514,-0.3022711483994316
1733312833744244,-0.19613196,0.27907953,-9.691101,-0.015448003,0.024981009,-0.2482377,-0.0770929,-0.062248435,0.1897104,-0.12716126274019332,0.39753183182808505,91.5426783409546,0.7625699119520251,0.42774746900940763,-0.25870920363472716
1733312833752244,-0.1969913,0.27989864,-9.693873,-0.016050559,0.024475854,-0.24666052,-0.07531943,-0.06314436,0.19714794,-0.12174716097991568,0.400804105461098,91.54048539628948,0.6767627200347038,0.40903420412661934,-0.2741180831389174
1733312833760244,-0.197839,0.28069752,-9.696615,-0.016646156,0.023955025,-0.24514349,-0.07444969,-0.065103635,0.18962844,-0.11708418652840587,0.4040617591641781,91.53855919688729,0.5828718064387279,0.40720671288500354,-0.24077492527327096
1733312833776244,-0.19950156,0.28223583,-9.702008,-0.017833225,0.022882469,-0.24178997,-0.07419183,-0.06703474,0.20959507,-0.11040872939339216,0.4109646403343997,91.53500066788166,0.4172160709383561,0.43143007313885473,-0.22240806285252904
1733312833784244,-0.20031735,0.28297594,-9.704659,-0.018424943,0.022334864,-0.24006625,-0.07396471,-0.06845058,0.21546519,-0.10861327242275394,0.4147480230252887,91.5334298810853,0.22443212132977852,0.4729228363611219,-0.19634834954433347
1733312833792244,-0.20112348,0.28369704,-9.707281,-0.019012712,0.021774257,-0.2382581,-0.07347111,-0.07007597,0.22601894,-0.10791008425787497,0.4184989098982654,91.53204353813992,0.08789852060987138,0.46886085912208497,-0.17329286817240286
1733312833808244,-0.20273714,0.28507283,-9.712434,-0.020180702,0.020609021,-0.23476481,-0.07299939,-0.07282721,0.21832994,-0.10969419293195462,0.4263248651895579,91.52925746589406,-0.11150679212997812,0.4891222057057826,-0.17412951536659038
1733312833816244,-0.20388539,0.28556883,-9.71422,-0.02079488,0.019920599,-0.2327732,-0.076772176,-0.086052805,0.24895182,-0.11201063395223256,0.43017789320055344,91.52593735109319,-0.28955512753474233,0.48162850137444513,-0.4150143501074612
1733312833824244,-0.20501576,0.2860503,-9.715996,-0.021389022,0.019229202,-0.2307187,-0.07426785,-0.086424634,0.25681219,-0.11513128042535804,0.4341525627122291,91.52304794038977,-0.39008080914068594,0.496833688959453,-0.36117633792769765
1733312833832244,-0.20612891,0.2865174,-9.717761,-0.02199151,0.01853887,-0.2286535,-0.07531093,-0.086291455,0.25814956,-0.11908571624804212,0.43812851501115024,91.5201585264173,-0.49430447783550946,0.4969940373651424,-0.361176746559002
1733312833848244,-0.2083058,0.28740934,-9.721259,-0.023134952,0.017147178,-0.22461317,-0.07146515,-0.08698075,0.25252065,-0.12984710449202835,0.44538041710722553,91.5146254068294,-0.6725867652491403,0.4532438810047057,-0.34581997424436645
1733312833856244,-0.20937051,0.2878345,-9.722992,-0.023698391,0.016428502,-0.2225849,-0.07042987,-0.08983444,0.25353393,-0.1368315954280056,0.44860564520504964,91.51205690076904,-0.8730613669971533,0.4031535122280172,-0.3210632575449549
1733312833864244,-0.2104198,0.28824583,-9.724714,-0.024227446,0.015708333,-0.22055839,-0.066131815,-0.09002117,0.25331414,-0.14486825952086968,0.4516274568309672,91.50957715701132,-1.0045830116080106,0.3777264532396979,-0.30996796971323853
1733312833872244,-0.21145397,0.28864354,-9.726424,-0.024736067,0.014977004,-0.21858147,-0.06357767,-0.09141606,0.24711525,-0.1540992195615071,0.454485126563806,91.50742551671459,-1.1538700050796782,0.35720871660485,-0.26895503709296326
1733312833888244,-0.21349491,0.28938445,-9.729814,-0.025710456,0.01352133,-0.2148524,-0.060899295,-0.09097962,0.23306718,-0.17443306674790132,0.460038567380166,91.50312870001278,-1.2708654491496383,0.34709005102249707,-0.2685510438626777
1733312833896244,-0.21449369,0.28973535,-9.731492,-0.026166406,0.012792218,-0.21295209,-0.05699368,-0.09113911,0.23753753,-0.1848737388661641,0.4624404171943267,91.50107264737493,-1.3050840147828477,0.300231226770089,-0.257006579732732
1733312833904244,-0.21547829,0.29007345,-9.733159,-0.02659448,0.012075676,-0.21109617,-0.05350937,-0.089567736,0.23199058,-0.19586945028514358,0.4646667582020785,91.49922152470907,-1.3744639273724328,0.27829262596897314,-0.23139033323033828
1733312833912244,-0.21644899,0.290399,-9.734816,-0.027009431,0.011348151,-0.20933767,-0.051868845,-0.09094062,0.2198126,-0.20780495695694562,0.4666731391762357,91.49765726942978,-1.4919383339752572,0.250797621769654,-0.19553190991207856
1733312833928244,-0.21834956,0.29101267,-9.7381,-0.027764183,0.009884802,-0.20607351,-0.04717195,-0.091459304,0.20400992,-0.23375386029603334,0.46984661507988434,91.4944189721403,-1.621806458692983,0.19834224397804046,-0.2023935805924047
1733312833936244,-0.21927978,0.29130122,-9.739728,-0.02808975,0.009167525,-0.20444891,-0.040696,-0.08965959,0.20307487,-0.24720798079628362,0.47122395849994586,91.492950396932,-1.6817650625312848,0.17216792750768753,-0.1835719010380497
1733312833944244,-0.22044429,0.29154173,-9.740047,-0.028495707,0.008419272,-0.20244889,-0.050744504,-0.093531676,0.25000235,-0.2609830258635029,0.4722375288927572,91.49181630914164,-1.7218806334024142,0.12669629910141925,-0.14176097379377678
1733312833952244,-0.22159013,0.29177096,-9.74039,-0.028867599,0.007671667,-0.20040125,-0.046486497,-0.09345059,0.25595537,-0.27506139991660916,0.4730748425260426,91.49404405018467,-1.7597967566382757,0.10466420416067276,0.2784676303777598
1733312833960244,-0.22271758,0.29198912,-9.740753,-0.029200507,0.0069391336,-0.19843446,-0.041613586,-0.091566645,0.24584866,-0.2896892522797541,0.47358290854319596,91.4962510402109,-1.828481545393118,0.06350825214416785,0.275873753278105
1733312833976244,-0.22491829,0.29239282,-9.741538,-0.02978395,0.005462993,-0.19467491,-0.03646512,-0.09225879,0.23497175,-0.32014338154787475,0.4736850980680006,91.50109554713045,-1.903383079257542,0.006386845300290113,0.30278168247166637
1733312833984244,-0.22599213,0.29257864,-9.74196,-0.03003664,0.004726705,-0.19289325,-0.03158627,-0.09203597,0.22270715,-0.33542404860318703,0.47325024563058343,91.50352121481211,-1.9100833819140306,-0.054356554677142045,0.3032084602081277
1733312833992244,-0.22704856,0.292754,-9.742399,-0.03024759,0.003998189,-0.19125113,-0.026368767,-0.09106454,0.20526534,-0.35067245635554306,0.4725338517800533,91.50619260308503,-1.906050969044505,-0.08954923131626737,0.3339235341148813
1733312834008244,-0.22911054,0.2930737,-9.743337,-0.030651603,0.0025193335,-0.18844335,-0.025250832,-0.09242845,0.17548631,-0.38135452406618164,0.4700251664993459,91.51196545365633,-1.9176292319149135,-0.15679283004421532,0.3608031607068737
1733312834016244,-0.23011714,0.29322964,-9.743835,-0.03080439,0.0018247281,-0.18710913,-0.0190984,-0.08682567,0.1667775,-0.3972426000059705,0.46841751017404304,91.51490349297747,-1.9860094924736083,-0.20095704066285677,0.367254915141924
1733312834024244,-0.23110735,0.2933756,-9.744352,-0.0309245,0.0011055387,-0.18585071,-0.01501385,-0.089898676,0.15730223,-0.41343797318443726,0.4666564900378985,91.51607818455881,-2.0244216473083427,-0.22012751701806696,0.14683644766687423
1733312834032244,-0.23208144,0.29351172,-9.744887,-0.031020395,0.00040337615,-0.18467228,-0.011986819,-0.087770306,0.14730357,-0.42949126126777565,0.46472972607950563,91.51725323699645,-2.0066610104172993,-0.24084549479910514,0.14688155470524858
1733312834048244,-0.23398162,0.2937549,-9.746012,-0.031105815,-0.0010135131,-0.18267107,-0.00533869,-0.088555574,0.12507568,-0.46033131115741227,0.46003557907608045,91.51996477250736,-1.9275031181022875,-0.2933841877140763,0.16947096943218204
1733312834056244,-0.23490818,0.29386222,-9.7466,-0.031134242,-0.001726611,-0.18168673,-0.003553461,-0.08913724,0.123042606,-0.4754162807964037,0.45740448453862037,91.5214673861079,-1.8856212048739318,-0.32888681718250923,0.18782670006659088
1733312834064244,-0.2358194,0.29396003,-9.747207,-0.031130802,-0.0024442638,-0.18072946,0.00043003817,-0.089706585,0.11965818,-0.49038558197855064,0.45473779815576865,91.5232639652158,-1.8711626477683658,-0.33333579785646156,0.22457238848817576
1733312834072244,-0.23693402,0.29374543,-9.747825,-0.031244723,-0.0033314405,-0.17986849,-0.014240154,-0.11089709,0.10762177,-0.5052365714473442,0.4516632097131854,91.52482101856101,-1.8563736835992057,-0.3843235553229045,0.19463166815201416
1733312834080244,-0.23802963,0.29352728,-9.74846,-0.031334076,-0.0042205863,-0.17913137,-0.011169118,-0.11114322,0.09213946,-0.519663173506956,0.4487308869667061,91.52519628479482,-1.8033252574514664,-0.3665403433099118,0.046908279224302206
1733312834096244,-0.24013148,0.29305765,-9.749781,-0.03137586,-0.006028601,-0.17767067,-0.0026114283,-0.113000914,0.09129382,-0.5479537102555266,0.4421174898556299,91.52600817725545,-1.7681585467856635,-0.4133373194422644,0.050743278790117044
1733312834104244,-0.24115495,0.29281732,-9.750465,-0.03133955,-0.0068982593,-0.17696114,0.0045388006,-0.10870729,0.088691704,-0.5616009701152963,0.4384438601975409,91.52666320725857,-1.7059074824712108,-0.4592037072611242,0.08187875038853676
1733312834112244,-0.2421604,0.29257345,-9.751165,-0.031296093,-0.007756182,-0.17634763,0.0054319385,-0.107240334,0.076688826,-0.574521368319996,0.4344327686001844,91.52744814973295,-1.6150497755874669,-0.5013864496695567,0.09811780929856703
1733312834128244,-0.24411784,0.29207495,-9.752615,-0.031072931,-0.009456592,-0.17532353,0.013947602,-0.1062756,0.064006075,-0.6003426277402402,0.42485982923733484,91.52929105875583,-1.613828713765256,-0.5983087101781017,0.1151818139298097
1733312834136244,-0.24507006,0.29182017,-9.753365,-0.030922242,-0.010297845,-0.17478986,0.018836232,-0.105156675,0.06670877,-0.613458754232758,0.419438806409153,91.53034911581837,-1.6395158115647246,-0.6776278535227314,0.13225713281819293
1733312834144244,-0.24600486,0.29156175,-9.754129,-0.030731931,-0.0111262705,-0.17421794,0.02378877,-0.10355317,0.07149018,-0.6262217315479566,0.413984302526513,91.53120897902944,-1.5953721643998282,-0.6818129853299915,0.10748290138460181
1733312834152244,-0.24692234,0.29129967,-9.754908,-0.03052397,-0.011942303,-0.17365251,0.025995074,-0.10200403,0.07067807,-0.6385391213221828,0.4080963678621228,91.53186382081441,-1.5396737217782797,-0.7359918330487812,0.08185522311947482
1733312834168244,-0.24870032,0.2907609,-9.756507,-0.030062024,-0.013534762,-0.17273554,0.028871696,-0.09952869,0.057310794,-0.6623338851795332,0.39510908442552706,91.5334328705766,-1.4871727410843987,-0.8117052147872325,0.09806561013770775
1733312834176244,-0.24956429,0.29048616,-9.757326,-0.02978335,-0.014319258,-0.17224838,0.03483426,-0.09806198,0.060895454,-0.6742081940887358,0.38785066506123816,91.53439496456379,-1.4842886136503235,-0.9073024205361137,0.12026174839805974
1733312834184244,-0.25041172,0.29020792,-9.75816,-0.029477855,-0.015071,-0.17176811,0.038186785,-0.093967766,0.06003305,-0.6856307104425322,0.38029342455780923,91.53527493923787,-1.4278145442245584,-0.9446550629286183,0.10999683425954662
1733312834192244,-0.25104344,0.2896543,-9.758715,-0.029025756,-0.015999686,-0.17122948,0.05651242,-0.116085745,0.067329034,-0.6966733623160974,0.37284536928650835,91.53600497356805,-1.380331484195644,-0.9310069089126042,0.09125429127415828
1733312834208244,-0.2522699,0.28855166,-9.759885,-0.028095687,-0.017777855,-0.17026798,0.05812931,-0.111135535,0.060093585,-0.7181508395797979,0.3579186211113422,91.53781289361977,-1.3423423289812815,-0.9329217609478845,0.11299500323164449
1733312834216244,-0.2528648,0.2880024,-9.760498,-0.027603423,-0.018641604,-0.16972741,0.061532944,-0.10796869,0.06757118,-0.7281417649371993,0.3502381668486159,91.53878891048747,-1.2488656696751756,-0.9600567828407887,0.12200210846338548
1733312834224244,-0.2534517,0.28746635,-9.761128,-0.027110528,-0.019472042,-0.16920976,0.061611876,-0.103804745,0.06470643,-0.7375818745502184,0.3423777295074473,91.53984667659344,-1.1800137016273906,-0.9825546676460725,0.1322207632453826
1733312834232244,-0.2540265,0.2869315,-9.761775,-0.026591968,-0.020270156,-0.1687373,0.06482005,-0.0997642,0.059057023,-0.7468460677749531,0.3338922723076229,91.5408633820494,-1.1580241530918276,-1.0606821499780525,0.12708818199454905
1733312834248244,-0.25513947,0.2858655,-9.763123,-0.025506582,-0.02181784,-0.16803671,0.067836605,-0.0967303,0.04378706,-0.7638406974413671,0.3156013454843074,91.54290352336415,-1.062164354150878,-1.143182926457219,0.12750883217216313
1733312834256244,-0.25567776,0.28533426,-9.763825,-0.024946375,-0.022561893,-0.16770066,0.070025906,-0.09300652,0.04200637,-0.7716083798874578,0.30588146980825326,91.54405013564521,-0.9709603057613373,-1.214984459506771,0.1433265351331344
1733312834264244,-0.25620395,0.2848042,-9.7645445,-0.024372177,-0.02329417,-0.16736722,0.0717747,-0.09153457,0.041680407,-0.7787036614495078,0.29575776261292913,91.5452306087098,-0.8869101952562465,-1.2654633994155104,0.1475591330741867
1733312834272244,-0.25671813,0.2842753,-9.76528,-0.023789369,-0.023998406,-0.16700922,0.07285108,-0.08802953,0.044750046,-0.7851885513827218,0.2851852409491085,91.54632923807762,-0.8106112416517495,-1.3215652079775773,0.13732867097592064
1733312834288244,-0.2577103,0.28322086,-9.766796,-0.022567432,-0.025366597,-0.166558,0.07637101,-0.08551194,0.028201377,-0.796220590108577,0.2633771040504049,91.54864283954511,-0.6895024203659557,-1.363008556168977,0.14460009171833565
1733312834296244,-0.25818112,0.28269777,-9.767576,-0.021938847,-0.026004082,-0.16613896,0.07857312,-0.07968558,0.05237944,-0.8011442132336579,0.2522354319246601,91.54964587418482,-0.6154528906351074,-1.392709015718105,0.1253793299637725
1733312834304244,-0.2586402,0.28217596,-9.76837,-0.021322334,-0.026605686,-0.16568877,0.07706415,-0.07520057,0.05627423,-0.8057891013764714,0.24102034415364115,91.55123655540163,-0.5806110178516906,-1.4018859713773635,0.19883515210178296
1733312834312244,-0.25908765,0.28165555,-9.76918,-0.020699732,-0.027196769,-0.16527435,0.07782527,-0.07388531,0.05180202,-0.8099369278294243,0.22978730954576207,91.5528342466728,-0.5184783066190977,-1.4041293259848868,0.19971140889665426
1733312834328244,-0.25857744,0.28101304,-9.772819,-0.018924948,-0.028123714,-0.16529076,0.110924006,-0.057934083,-0.0010253862,-0.8165882602469818,0.20678517308625674,91.55676065107723,-0.4157082760973479,-1.4376335287190813,0.24540027527661482
1733312834336244,-0.25832874,0.2806878,-9.77462,-0.018050326,-0.02855509,-0.1652145,0.10932772,-0.053921945,0.009533018,-0.8193871958324511,0.1949178865894521,91.55910311118652,-0.3498669481836692,-1.48341081210058,0.2928075136600134
1733312834344244,-0.25808382,0.2803602,-9.776409,-0.017183565,-0.028970188,-0.16508768,0.10834517,-0.051887237,0.01585111,-0.821938721794257,0.1831403351869362,91.56141844312592,-0.31894074522572224,-1.4721939253144884,0.2894164924262244
1733312834352244,-0.25784242,0.2800304,-9.778187,-0.016318219,-0.02935258,-0.16487125,0.10816822,-0.047798965,0.027054919,-0.8239143817602907,0.17152458235306806,91.56363818471013,-0.24695749575423406,-1.4519691042335183,0.27746769802579413
1733312834368244,-0.25734246,0.27935624,-9.781705,-0.014550086,-0.030101927,-0.16442478,0.110508285,-0.04683423,0.027904285,-0.8248821544544618,0.14892908082179507,91.56837826380898,-0.060485793385684355,-1.412218845704562,0.29625494367860544
1733312834376244,-0.25708336,0.27901226,-9.783445,-0.013646863,-0.030448454,-0.16401114,0.112902835,-0.04331581,0.051705163,-0.8243617136767186,0.13795669436278937,91.57217649316367,0.0650550972178853,-1.371548307375713,0.4747786693344721
1733312834384244,-0.2568266,0.27866697,-9.785173,-0.012748739,-0.03077518,-0.16359726,0.11226558,-0.04084082,0.051734965,-0.8230404205733262,0.12716963566110198,91.5760089506917,0.16516163792405736,-1.3483823377109219,0.4790571910055979
1733312834392244,-0.25657195,0.2783205,-9.786888,-0.011847953,-0.031091856,-0.16315746,0.11259817,-0.039584465,0.054974105,-0.820936999473428,0.11646649158141113,91.57998506681523,0.26292763748727666,-1.337893009961357,0.4970145154404566
1733312834408244,-0.25606793,0.27762473,-9.790282,-0.010088342,-0.03165341,-0.16216645,0.10997569,-0.035097238,0.061938535,-0.814565513079264,0.09578453646289316,91.58739089504368,0.3982178996352564,-1.292622194907373,0.46286426427839983
1733312834416244,-0.2558182,0.27727598,-9.791959,-0.009225575,-0.031877838,-0.16146757,0.107845865,-0.028053297,0.08735991,-0.8102928019041781,0.08609163203671891,91.59131238266266,0.5340888968857308,-1.211613053271782,0.4901859523719622
1733312834424244,-0.2555697,0.27692693,-9.793623,-0.0083815865,-0.03209882,-0.1607722,0.10549859,-0.02762256,0.08692033,-0.8051514793374627,0.07683652958342448,91.5950906791692,0.642665320839429,-1.1568878066618045,0.4722870633172802
1733312834432244,-0.25532243,0.27657765,-9.795273,-0.0075604334,-0.03231687,-0.16005549,0.10264414,-0.02725655,0.0895895,-0.7991529636339514,0.06757929469939455,91.59879377625083,0.7498144629389071,-1.1571543605037398,0.462887135204222
1733312834448244,-0.25479487,0.27611607,-9.798497,-0.0059384825,-0.032561935,-0.15863848,0.10137193,-0.01531653,0.08856318,-0.7861158938793135,0.04958451152094878,91.60596100329478,0.8148168596648714,-1.124673948652861,0.4479516902470491
1733312834456244,-0.25451013,0.27600208,-9.800073,-0.005158039,-0.03258386,-0.157791,0.09755545,-0.0027404164,0.10593421,-0.7788709588628617,0.041035299793895655,91.61054561079177,0.9056168770564622,-1.0686514658816404,0.5730759371228794
1733312834464244,-0.2542271,0.275884,-9.801635,-0.004397022,-0.032593153,-0.15686281,0.09512709,-0.0011618249,0.11602416,-0.7712334320907885,0.032923301199847266,91.61493231622319,0.9546908465091455,-1.0139998242560486,0.5483381789275076
1733312834472244,-0.2539457,0.27576208,-9.803184,-0.0036460613,-0.032587577,-0.15595686,0.093870096,0.0006970949,0.11324323,-0.7631806511454334,0.024988994922659498,91.61927767075848,1.0065976181693919,-0.9917882846484714,0.5431693169113115
1733312834488244,-0.2533874,0.27550745,-9.806246,-0.0021840415,-0.032571238,-0.1542657,0.09137623,0.0010211952,0.105697654,-0.7453478253804924,0.010302006397151673,91.62761392927811,1.1145516103088136,-0.9179367828442389,0.5210161574768285
1733312834496244,-0.25311026,0.2753751,-9.807757,-0.0014716807,-0.032557618,-0.15320776,0.0890451,0.0017024575,0.13224222,-0.7360082267577899,0.003754789777196302,91.63174099704467,1.1674498278378207,-0.8184020774944214,0.5158834708200274
1733312834504244,-0.25285396,0.275255,-9.809256,-0.00082031393,-0.032492273,-0.15215425,0.08142085,0.008168165,0.13168901,-0.7264361012160868,-0.0022502271669803293,91.63586816210059,1.19651569271288,-0.7506271180220789,0.5158956319904977
1733312834512244,-0.2525989,0.27513206,-9.81074,-0.00017907123,-0.032414325,-0.15111741,0.080155335,0.009743497,0.12960471,-0.7162928569712348,-0.007847914061310624,91.6385738617764,1.2679055306065061,-0.6997108617912867,0.3382124594757868
1733312834528244,-0.25209266,0.2748782,-9.813672,0.0010345535,-0.032276917,-0.14916915,0.075851545,0.008587958,0.121766694,-0.6953443278844427,-0.018200026525346594,91.64332973328233,1.3092830679245078,-0.647007029002248,0.2972419691210106
1733312834536244,-0.25184152,0.27474743,-9.815118,0.0016297484,-0.032203954,-0.1480914,0.07439935,0.009120442,0.13471767,-0.6842989359674884,-0.02268364579556741,91.64565309932578,1.380673989619282,-0.5604524087776017,0.29042075543098606
1733312834544244,-0.2515916,0.27461436,-9.816551,0.002206155,-0.03212039,-0.14701615,0.07205084,0.010445247,0.13440661,-0.6730194785313538,-0.026668981505409448,91.64793540337138,1.409932179516824,-0.49816696373025515,0.2852880056998099
1733312834552244,-0.25134295,0.27447912,-9.817971,0.0027459855,-0.032038607,-0.14596881,0.0674788,0.010223127,0.13091788,-0.6618847519000991,-0.030347465716254247,91.65002614825724,1.391840828906833,-0.45981052635559955,0.2613431107328321
1733312834560244,-0.2510957,0.27434188,-9.819379,0.0032723206,-0.031938072,-0.14504968,0.06579188,0.0125668,0.11489167,-0.6511828985573683,-0.03362024741696761,91.6518098588511,1.3377316678413456,-0.40909771258917055,0.22296382423183775
1733312834576244,-0.25010738,0.2741531,-9.82224,0.0046237325,-0.031602748,-0.14294942,0.08446324,0.020957783,0.13126619,-0.6297646333538748,-0.03867197372790319,91.65767245180642,1.3386415752183483,-0.3157328944334735,0.36641205970775864
1733312834584244,-0.24962209,0.27405456,-9.823649,0.005261352,-0.031437173,-0.1418503,0.07970241,0.02069678,0.13739057,-0.6189988262807472,-0.0405858945768478,91.66147170840401,1.3457258841409498,-0.23924010611807667,0.47490707469761384
1733312834592244,-0.24914247,0.2739544,-9.825046,0.005874103,-0.03127757,-0.14076893,0.07659388,0.019950325,0.1351703,-0.6085736748668047,-0.042416038909039465,91.6649703653844,1.3031439267428095,-0.228768041523958,0.43733212255029147
1733312834608244,-0.24819994,0.27374926,-9.827796,0.007018577,-0.03096624,-0.13869905,0.07152962,0.019458123,0.12936722,-0.5877702545586385,-0.045081440968593525,91.67158475517742,1.3002137692603895,-0.16658762872212862,0.41339936206336425
1733312834616244,-0.2477369,0.27364442,-9.829151,0.007567421,-0.030813474,-0.13755031,0.06860553,0.019095838,0.14359318,-0.5775463321925133,-0.0459024779903992,91.67502186775378,1.2779902957656533,-0.10262962772570954,0.4296390720448649
1733312834624244,-0.24727917,0.27353814,-9.830492,0.008094719,-0.030657478,-0.13644795,0.0659122,0.019499566,0.13779476,-0.5674563388274811,-0.04636199512401717,91.67811029017588,1.2612491706290083,-0.057439641702246164,0.3860528027621301
1733312834632244,-0.24682665,0.27343056,-9.83182,0.008610385,-0.030494493,-0.13539395,0.06445823,0.020373145,0.13175048,-0.5575409479437914,-0.0465662872164851,91.68089168612498,1.2394238604612253,-0.025536511558491584,0.3476744936376379
1733312834648244,-0.24594691,0.27322933,-9.834436,0.009566686,-0.030158032,-0.13332519,0.059768844,0.021028796,0.12929738,-0.5374447072293741,-0.046137159097112204,91.68538109791174,1.2560150446510794,0.02682050746080599,0.28058823667330357
1733312834656244,-0.24551451,0.2731267,-9.835726,0.009998657,-0.030014781,-0.13222559,0.053996336,0.017906306,0.13745017,-0.5276461502591969,-0.04569282313241591,91.68717796669836,1.2248196212721407,0.05554199558703661,0.2246085983255786
1733312834664244,-0.24508716,0.27302277,-9.837002,0.010410495,-0.029852504,-0.13113707,0.051479783,0.02028467,0.13606437,-0.5181672433767656,-0.04510700082504453,91.68880435567164,1.1848633603039254,0.07322778842142269,0.20329862165999735
1733312834672244,-0.24466471,0.27291778,-9.838264,0.010810715,-0.029688863,-0.1300486,0.050027505,0.020455102,0.13605878,-0.5091167623123795,-0.04425979030605368,91.69016397962137,1.1313101330482636,0.10590131487385607,0.1699529937183353
1733312834688244,-0.24383417,0.27270412,-9.8407545,0.011562541,-0.0294187,-0.12805372,0.04698912,0.016885227,0.12467987,-0.490617133595301,-0.04171899924005881,91.69270592100985,1.156226794817404,0.1587994416246791,0.1588713367786853
1733312834696244,-0.24347393,0.27209893,-9.842585,0.011890644,-0.029551866,-0.12713332,0.041012883,-0.016645761,0.115049995,-0.4813431868988547,-0.04017397537065876,91.69388803708333,1.1592433370557886,0.19312798367500653,0.14776450918532086
1733312834704244,-0.24311736,0.27150258,-9.844388,0.012207422,-0.029676994,-0.12620662,0.039597273,-0.015641097,0.115837894,-0.4722086716408065,-0.03820118415712485,91.69267841041636,1.1418144072560248,0.24659890169173945,-0.15120333337037523
1733312834712244,-0.24276903,0.27090558,-9.846164,0.012476561,-0.029804682,-0.12529223,0.03364228,-0.015961006,0.11429935,-0.46338427954403516,-0.03607321959778661,91.6916058322834,1.1030490120964194,0.26599556991727963,-0.1340722666204274
1733312834728244,-0.24208353,0.26973623,-9.84964,0.0130003365,-0.030120457,-0.12352736,0.03273599,-0.019735888,0.110303976,-0.44608204053673123,-0.031779524476001186,91.69079238583981,1.0813899379564946,0.26835594511158906,-0.05084040272368896
1733312834736244,-0.2417464,0.26916313,-9.851339,0.013224855,-0.03027399,-0.122441664,0.028064823,-0.019191764,0.13571233,-0.4379488665506109,-0.029922006237096194,91.69007492360792,1.0166467482650443,0.23218977986312406,-0.08968277898658888
1733312834744244,-0.24141297,0.2685974,-9.853012,0.013457283,-0.030426186,-0.121362634,0.029053537,-0.019024359,0.13487878,-0.42990618974528233,-0.028443817038749892,91.68922774415554,1.0053346006660644,0.1847736497932876,-0.10589743154768773
1733312834752244,-0.24108317,0.26803884,-9.85466,0.013685137,-0.030564861,-0.120285936,0.028481705,-0.017334474,0.13458729,-0.42211051243882536,-0.027135048586145474,91.68841439882762,0.9744596633071251,0.16359605657555223,-0.10166816598986544
1733312834760244,-0.24075712,0.26748732,-9.856284,0.01386932,-0.030686146,-0.11925306,0.023022875,-0.015160534,0.12910925,-0.4143269745799757,-0.02636822636609017,91.68760125484066,0.9729422323562054,0.09585277750691291,-0.10164299837040015
1733312834776244,-0.24011649,0.26640415,-9.859458,0.01422508,-0.030961853,-0.11707132,0.022234976,-0.017231679,0.13635866,-0.39927563874027944,-0.0259733960341498,91.68518260587007,0.9407084899810181,0.024676895746273193,-0.1511655606616762
1733312834784244,-0.23980153,0.2658845,-9.861009,0.014384261,-0.031086953,-0.11587711,0.019897705,-0.015637605,0.14927703,-0.39237407323541995,-0.026302619190530646,91.6837269986512,0.8626956881074299,-0.041152894547605776,-0.18195090236024702
1733312834792244,-0.23949029,0.26537067,-9.8625345,0.014547542,-0.031209012,-0.11468217,0.02041005,-0.015257391,0.14936738,-0.38573564727731163,-0.027154325196415592,91.6814926845776,0.8298032447635446,-0.10646325073561813,-0.2792892591978872
1733312834808244,-0.23887892,0.26436016,-9.865519,0.014833822,-0.031407863,-0.112466045,0.01789251,-0.01242815,0.13850768,-0.3729097294852253,-0.030278043236927676,91.6766955472772,0.8016198620053916,-0.19523237753200526,-0.2998210812747926
1733312834816244,-0.23852123,0.26361182,-9.866807,0.014929835,-0.031697873,-0.11122583,0.012001604,-0.036251266,0.15502702,-0.36717272697563724,-0.03237327077916475,91.6742289060733,0.7171253136985124,-0.261903442779634,-0.308330150489121
1733312834824244,-0.23816948,0.26287302,-9.868076,0.015007156,-0.031952407,-0.10996927,0.009665149,-0.031816773,0.1570694,-0.36185464215866336,-0.03470047137468233,91.66934341374277,0.6647606021217347,-0.29090007443969823,-0.6106865413162371
1733312834832244,-0.23782359,0.2621436,-9.869327,0.01506977,-0.03220143,-0.10865808,0.0078267185,-0.031128058,0.1638988,-0.35670448020401213,-0.037546579751268766,91.66438262165266,0.6437702443314076,-0.35576354707330377,-0.6200990112628624
1733312834848244,-0.23714957,0.26071164,-9.871776,0.015127987,-0.03267964,-0.106253415,0.0036385607,-0.029888002,0.15029171,-0.34714072357022996,-0.04430231891850871,91.65396907410576,0.5977347896113836,-0.4222336979524964,-0.650846721681664
1733312834856244,-0.23682629,0.26000625,-9.872974,0.01514431,-0.032916367,-0.10490911,0.0020404113,-0.02959091,0.16803852,-0.34279833750140604,-0.04804773174008312,91.64887183288089,0.5427982586029951,-0.46817660269680195,-0.6371551531089084
1733312834864244,-0.23650867,0.25930923,-9.874154,0.01515998,-0.033129,-0.10354406,0.0019588042,-0.026579013,0.17063132,-0.3385121593133823,-0.05211435055300277,91.64374025764259,0.5357722735029627,-0.5083273516149562,-0.641446904787037
1733312834872244,-0.23619658,0.2586205,-9.875317,0.015176569,-0.033331525,-0.102227844,0.0020735897,-0.025315674,0.1645265,-0.33425743610582564,-0.056770540638239386,91.63879341274449,0.531840400944582,-0.5820237606545771,-0.6183556122618232
1733312834888244,-0.23558894,0.25726727,-9.877592,0.015144271,-0.033696204,-0.09997038,-0.0020186417,-0.022792488,0.14109164,-0.32585163239763204,-0.06762710605686519,91.62898847536957,0.5253627317621018,-0.6785353386641123,-0.6128085859333509
1733312834896244,-0.23529331,0.25660256,-9.878706,0.015129939,-0.033848852,-0.09872406,-0.0017915153,-0.019080937,0.15578978,-0.3224733502914576,-0.07372903095210492,91.62411672858876,0.42228526327180144,-0.7627406119049681,-0.608968347600382
1733312834904244,-0.23500298,0.25594565,-9.879803,0.015106281,-0.03399447,-0.097503744,-0.0029571818,-0.018202234,0.15253946,-0.31916350145191646,-0.08029040741572226,91.61932691058489,0.4137311049426425,-0.8201720579521663,-0.5987272504842331
1733312834912244,-0.23471788,0.2552965,-9.880884,0.01508567,-0.03410829,-0.09631698,-0.0025763873,-0.014227348,0.14834571,-0.31562729810511914,-0.08703434596042972,91.61463306189037,0.4420254183496707,-0.8429923180884322,-0.5867310868138905
1733312834928244,-0.23417106,0.2540227,-9.883001,0.015019505,-0.034318365,-0.09419204,-0.004135305,-0.013129785,0.13280846,-0.30920444310896095,-0.1012908977087378,91.60497197056131,0.40142843725988414,-0.8910344842692547,-0.6038182080664191
1733312834936244,-0.23390506,0.25339693,-9.884039,0.014983912,-0.034411453,-0.09308485,-0.004449161,-0.011635943,0.13839918,-0.30629256008371375,-0.10885917358806635,91.60023032319657,0.3639853781559049,-0.9460344849160687,-0.592705920593739
1733312834944244,-0.23386991,0.25304192,-9.885226,0.014799262,-0.034337938,-0.09196746,-0.023081198,0.00918936,0.13967323,-0.3034735673606034,-0.11660001405172839,91.59552309673347,0.35237409038879114,-0.9676050579577556,-0.5884033078859215
1733312834952244,-0.23383535,0.2526888,-9.8863945,0.014620011,-0.03424421,-0.090882726,-0.022406455,0.011716037,0.13559218,-0.30054253457187297,-0.12469413967462098,91.59044670373916,0.3663790985913064,-1.0117657028615739,-0.6345491242898014
1733312834968244,-0.2337684,0.25198862,-9.888678,0.014234897,-0.03401534,-0.08884123,-0.024069624,0.014304415,0.12759352,-0.29489731953678205,-0.1409969646452803,91.58043766666886,0.3528259396931808,-1.0189265606662072,-0.6255648168939408
1733312834976244,-0.23373619,0.25164166,-9.889792,0.014049173,-0.033897683,-0.08777532,-0.023215426,0.0147069795,0.13323873,-0.29241392919546155,-0.14940284675975138,91.57575783125397,0.31042379266506026,-1.0507352643088859,-0.5849794268611702
1733312834984244,-0.23370478,0.251297,-9.890888,0.013856653,-0.033760745,-0.086612836,-0.024065025,0.017117243,0.14531054,-0.29004163316468917,-0.1578838511156871,91.57115309622712,0.29653700384655224,-1.0601255444919617,-0.5755918783558973
1733312834992244,-0.23365745,0.2509506,-9.891967,0.013685772,-0.033619843,-0.08548065,-0.021360114,0.017612707,0.14152284,-0.28797932303831075,-0.16625712291507141,91.56663749102398,0.25778876579730314,-1.0466589749230408,-0.5644506503919868
1733312835008244,-0.23356594,0.2502656,-9.894073,0.0133516975,-0.033296235,-0.08361375,-0.02087967,0.02022553,0.11668121,-0.28503066279058675,-0.18274068704206528,91.5595257778443,0.18429126548274927,-1.030222757937117,-0.4444820737301725
1733312835016244,-0.23352176,0.24992727,-9.895102,0.013183239,-0.033114094,-0.0826034,-0.021057319,0.022767575,0.12629385,-0.2840769193272737,-0.19061689746197102,91.556212671792,0.11921793291412783,-0.9845263024882173,-0.4141382565370658
1733312835024244,-0.23347868,0.24959189,-9.896114,0.013008134,-0.032914348,-0.08153796,-0.021888059,0.02496829,0.13318005,-0.28349371046346944,-0.19783200658325892,91.5531315198338,0.07290110797553198,-0.9018886401609885,-0.3851439947759755
1733312835032244,-0.2334368,0.24925962,-9.89711,0.012830153,-0.032698948,-0.0805063,-0.022247665,0.026925,0.12895744,-0.2831403685263185,-0.20470276571637055,91.55036499622184,0.04416774214386693,-0.8588448916389525,-0.34581545149401915
1733312835048244,-0.23335661,0.24860464,-9.899056,0.01248631,-0.03227266,-0.078634806,-0.021490209,0.026643042,0.11696852,-0.2832618302528682,-0.21815244694949593,91.54501638264875,-0.007591357909355651,-0.8406050770703357,-0.3342883483184342
1733312835056244,-0.23331816,0.24828205,-9.900007,0.012335688,-0.032037277,-0.07763254,-0.018827733,0.029422807,0.12528338,-0.2835181594072589,-0.2245198849566115,91.54276211771032,-0.03204114429883326,-0.7959297508894452,-0.28178311730223793
1733312835064244,-0.23331292,0.24795885,-9.900942,0.012130808,-0.031820726,-0.076631136,-0.025609972,0.027068889,0.12517534,-0.2839485680565113,-0.23055325740863641,91.54076084614537,-0.05380108115655005,-0.7541715565031163,-0.250158945619451
1733312835072244,-0.23339376,0.24757774,-9.901845,0.011835508,-0.031725653,-0.07566893,-0.036912505,0.011884141,0.12027565,-0.28441689955468247,-0.23624061102102015,91.53868428369869,-0.05854143727140029,-0.710919201547967,-0.2595703058355619
1733312835088244,-0.23355564,0.24682443,-9.903613,0.011255594,-0.03148849,-0.07410732,-0.036244627,0.014822696,0.097600736,-0.28580967368141286,-0.2452423728891592,91.52898286393216,-0.08704838292064836,-0.5626101167586918,-0.6063387354080237
1733312835096244,-0.23363683,0.24645238,-9.904475,0.010975528,-0.03135752,-0.07320259,-0.035008296,0.016371254,0.113091424,-0.2868996050580396,-0.24938593507864118,91.52437135070839,-0.13624142207834095,-0.517945273685247,-0.5764391529712127
1733312835104244,-0.23371813,0.24608344,-9.905324,0.010705321,-0.031217758,-0.07229613,-0.03377581,0.017470215,0.11330749,-0.28831562436895414,-0.25332851295392744,91.51994427683198,-0.17700241386432083,-0.49282223441077855,-0.5533842345510996
1733312835112244,-0.23379953,0.24571764,-9.90616,0.010426374,-0.031061202,-0.07152964,-0.034868367,0.019569416,0.095810734,-0.2900224242786987,-0.2570214941255532,91.51581097909732,-0.21334998871806604,-0.4616226464532225,-0.5166622168320512
1733312835128244,-0.23396274,0.244996,-9.9078,0.009904356,-0.030691242,-0.070019774,-0.03262615,0.023122527,0.09436672,-0.2935816938955037,-0.2635378019577359,91.50808413953727,-0.22245435105031489,-0.4072692395114195,-0.482927472503456
1733312835136244,-0.2340499,0.24463947,-9.908602,0.009646313,-0.030484568,-0.069082215,-0.032255307,0.025834188,0.11719483,-0.2957670716662,-0.26651134061543047,91.50444936173058,-0.2731722213370299,-0.37169233221182135,-0.45434722583604625
1733312835144244,-0.234137,0.2442864,-9.909391,0.009401155,-0.030275809,-0.0681354,-0.03064482,0.026094958,0.118351534,-0.2983135601632125,-0.2691686867638517,91.50086246796991,-0.31831106212656257,-0.3321682685526543,-0.44836172008345
1733312835152244,-0.23422404,0.24393676,-9.910165,0.009160248,-0.03007369,-0.067251116,-0.030113382,0.025264917,0.110535875,-0.301231369197343,-0.27164481799682066,91.49749451319109,-0.3647261292663195,-0.30951640412111925,-0.42099434735403657
1733312835168244,-0.23439778,0.24324769,-9.91168,0.008719002,-0.029631523,-0.06588566,-0.027577857,0.027635366,0.085340805,-0.30770859221625546,-0.27678024525270145,91.49148936581055,-0.4048264386820275,-0.32096420349254795,-0.37532171128338987
1733312835176244,-0.23448431,0.2429084,-9.912422,0.008527554,-0.029394008,-0.06498495,-0.02393103,0.029689398,0.11258944,-0.3109489802421218,-0.27942105160909675,91.4887429274391,-0.40504850323329594,-0.3301007945494156,-0.3433047964303471
1733312835184244,-0.23457043,0.24257256,-9.913152,0.00834964,-0.029167056,-0.06408947,-0.022239167,0.028369015,0.11193472,-0.3143535606226615,-0.2821228507531735,91.48626304482143,-0.4255725475674583,-0.33772489300959563,-0.30998532721033634
1733312835192244,-0.23476817,0.24190013,-9.9128475,0.008181362,-0.02911674,-0.06296538,-0.021034734,0.0062894537,0.14051142,-0.3178879423144281,-0.2847804938733065,91.4838173894181,-0.44179771147081964,-0.33220539001662347,-0.30570692541431643
1733312835208244,-0.23516357,0.24060777,-9.912284,0.007863237,-0.028970262,-0.061003402,-0.019882863,0.009154901,0.12262351,-0.32593023398159837,-0.2890253762594216,91.47719035216544,-0.5026432291981459,-0.2653051491321928,-0.414189828292167
1733312835216244,-0.23535551,0.23997626,-9.912025,0.0077113127,-0.028884187,-0.05990763,-0.018990481,0.010759336,0.13697147,-0.3297719506787896,-0.2909802494654625,91.47398608001791,-0.48021458714890364,-0.24435915075511513,-0.40053401844125053
1733312835224244,-0.2355437,0.23935431,-9.91178,0.00757174,-0.028780716,-0.058911562,-0.017446581,0.012933974,0.12450851,-0.3336805027382888,-0.29272634594658686,91.4709391146757,-0.4885690074373976,-0.21826206014054195,-0.38087066777599843
1733312835232244,-0.23572806,0.23874192,-9.911548,0.0074590202,-0.028653737,-0.05810592,-0.014089978,0.015872298,0.1007053,-0.3375613017986522,-0.2944296734112029,91.46817901300525,-0.48509988254542424,-0.21291593307700699,-0.3450127088044097
1733312835248244,-0.23608495,0.23754548,-9.911127,0.0072682123,-0.028356802,-0.056893088,-0.011925498,0.018558465,0.07580197,-0.3455689296388776,-0.2979750692154634,91.4629935561004,-0.5004767400140872,-0.22158723776628184,-0.32409105655333337
1733312835256244,-0.23625763,0.23696129,-9.910937,0.007177033,-0.028194275,-0.056259815,-0.011397408,0.020315869,0.079159155,-0.34946149890346917,-0.3000693511300507,91.46075938689822,-0.4865711580739502,-0.26178523932340747,-0.2792711502740723
1733312835264244,-0.23642647,0.2363862,-9.910761,0.0070956317,-0.028040186,-0.055695515,-0.010175164,0.019261148,0.07053744,-0.3533521486016854,-0.30224327562630204,91.45885357341534,-0.48633121227702575,-0.27174056203141933,-0.23822668535956704
1733312835272244,-0.23659872,0.23583005,-9.910601,0.0070044403,-0.027863152,-0.055207007,-0.011398922,0.022129154,0.061063558,-0.3573239823977674,-0.3045002312170135,91.45717299845434,-0.496479224510256,-0.28211944883892626,-0.21007187012447126
1733312835288244,-0.23693123,0.23474424,-9.910322,0.006919117,-0.027457306,-0.05462466,-0.0053326944,0.025365384,0.036396552,-0.3652508200223645,-0.3092437589113745,91.4519262546386,-0.49542735153731327,-0.296470480897567,-0.3279214884840181
1733312835296244,-0.23709148,0.23421429,-9.910204,0.006883246,-0.027250037,-0.05426785,-0.0044839107,0.025908694,0.0446015,-0.3690373865735844,-0.31191098696783015,91.44938516387673,-0.4733208189024954,-0.33340350705695426,-0.31763634523372414
1733312835304244,-0.23724772,0.23369285,-9.910098,0.006859229,-0.027037013,-0.053920534,-0.003002118,0.026627908,0.04341453,-0.37267548410628903,-0.31484915951805953,91.44711693690743,-0.4547621915880789,-0.36727156877867406,-0.28352837116142016
1733312835312244,-0.23739997,0.23317982,-9.910005,0.00684283,-0.026812147,-0.053694926,-0.002049841,0.028108245,0.028200911,-0.3762856182404485,-0.3178632131964994,91.44526591382679,-0.4512667667699274,-0.37675670980498127,-0.23137788508159962
1733312835328244,-0.23735417,0.23207906,-9.910316,0.0068152817,-0.026352536,-0.053813025,-0.0017217825,0.028725712,-0.0073811966,-0.38358038428223673,-0.32376549629982315,91.44140638653796,-0.45592287761176603,-0.3688926939577341,-0.24122045555138769
1733312835336244,-0.23733298,0.23154294,-9.910485,0.0068086917,-0.026123838,-0.053690426,-0.00082375476,0.028587177,0.015324912,-0.38691972390957335,-0.32665164456071205,91.43940479706443,-0.4174174534170809,-0.36076853261111597,-0.25019868419162716
1733312835344244,-0.23730671,0.23102467,-9.910662,0.00682036,-0.02584226,-0.05356165,0.0014585675,0.03519724,0.01609698,-0.38998199090505814,-0.32954513088909465,91.43778601159009,-0.3827833744355997,-0.36168579104782217,-0.20234818429212376
1733312835352244,-0.23728134,0.2305158,-9.910844,0.0068375506,-0.025569307,-0.053451132,0.002148794,0.034119233,0.0138147725,-0.39301675235292394,-0.33240636087945197,91.43622176464844,-0.37934518098321957,-0.357653748794667,-0.19553086770633024
1733312835368244,-0.23723261,0.22952533,-9.911231,0.0069098496,-0.025033398,-0.05371665,0.0045186896,0.033494316,-0.016594771,-0.39901925978238956,-0.3378693783730355,91.43340070677125,-0.3751567143416026,-0.3414385933489702,-0.1763161173241567
1733312835376244,-0.23720886,0.22904359,-9.911436,0.0069631645,-0.024758374,-0.05366304,0.0066643693,0.03437791,0.0067008655,-0.40123054629178395,-0.34052290000442914,91.43227371672873,-0.2764108136743015,-0.33169020392420434,-0.140873755315793
1733312835384244,-0.23718537,0.22857071,-9.911648,0.0070310463,-0.024473825,-0.05355262,0.008485221,0.035568606,0.013802665,-0.40293002949214474,-0.34313357283282486,91.43119460867342,-0.21243540004509695,-0.3263341035494665,-0.13488850691300794
1733312835392244,-0.237162,0.22810663,-9.911867,0.007096513,-0.024191257,-0.053488664,0.008183356,0.035321105,0.007994473,-0.40464853662050415,-0.34571713856685166,91.43033425764305,-0.2148133910449234,-0.3229457167533479,-0.10754387879607294
1733312835408244,-0.23711509,0.22720486,-9.912326,0.0072759017,-0.023563294,-0.05370154,0.011211785,0.039247677,-0.013304641,-0.4083395205555048,-0.3509724792933059,91.42933051395892,-0.23068649593754154,-0.3284587954033897,-0.06273398025854417
1733312835416244,-0.23709875,0.22676393,-9.912565,0.0073490064,-0.023254871,-0.053656217,0.009138078,0.038552795,0.0056652348,-0.4094242433860713,-0.3536798733938366,91.42917380626061,-0.1355903538208163,-0.3384242625663416,-0.019588462288430437
1733312835424244,-0.2370822,0.22633159,-9.912811,0.007420727,-0.022938523,-0.05361494,0.008965085,0.039543487,0.0051595266,-0.4102368548726046,-0.3564914040035939,91.42907863740497,-0.10157643581665421,-0.35144132621966184,-0.011896106955250332
1733312835432244,-0.23706532,0.22590789,-9.913061,0.007501288,-0.022589663,-0.053579696,0.0100700995,0.043607548,0.0044056214,-0.4109633451603916,-0.35913495220538855,91.42917465804291,-0.09081128597338196,-0.3304435252243279,0.012002579742871023
1733312835448244,-0.23699304,0.22530903,-9.912385,0.0076044034,-0.021809908,-0.05363979,0.006444723,0.04873471,-0.0037557909,-0.41160252726263913,-0.3641283201569299,91.4297084502996,-0.039948881390469,-0.31208549697133714,0.03336201604306445
1733312835456244,-0.23693971,0.22512881,-9.911499,0.0076161125,-0.021368213,-0.053374168,0.0014636315,0.055211827,0.03320258,-0.4115944857639315,-0.3667567691519478,91.43023507402992,0.001005187338457654,-0.3285561243772367,0.06582796629099325
1733312835464244,-0.2368879,0.2249522,-9.910646,0.0076535274,-0.020931022,-0.053021047,0.004676869,0.054648843,0.04414003,-0.4112928564675671,-0.36918425777278435,91.43097320182841,0.03770366204554958,-0.3034360776045638,0.0922659748103736
1733312835472244,-0.23683745,0.22477917,-9.909828,0.0076752338,-0.0204906,-0.052764315,0.0027132917,0.055052802,0.032091513,-0.410837737416294,-0.37145822465484724,91.431684187715,0.056889881409134466,-0.284245860257865,0.08887323582420253
1733312835488244,-0.23672079,0.22443965,-9.908295,0.0077480027,-0.019617682,-0.05295714,0.0045480556,0.05455734,-0.012051546,-0.41002797450232487,-0.37586912655794086,91.43420618416945,0.05061018212307055,-0.27568136894334955,0.15762477840266503
1733312835496244,-0.23666437,0.2242756,-9.907578,0.007785867,-0.019167384,-0.052938264,0.0047330395,0.05628727,0.0023595057,-0.40933887062715796,-0.3779568617397476,91.43561407520804,0.08613798439586298,-0.260966897725839,0.1759863798241757
1733312835504244,-0.23660918,0.22411552,-9.906895,0.007821446,-0.01871436,-0.05293705,0.0044474145,0.056627903,0.00015180558,-0.40844045924738326,-0.37987037040772403,91.43691245903726,0.11230142247183539,-0.23918858349705624,0.1622979786521224
1733312835512244,-0.2365551,0.22395933,-9.906255,0.00787167,-0.018273545,-0.05307381,0.0062779286,0.05510193,-0.017094892,-0.40759220649904093,-0.38182675589667187,91.43851854036187,0.10603159354279203,-0.24454818611847934,0.20076016557618098
1733312835528244,-0.2364499,0.22365896,-9.905071,0.007956241,-0.017373452,-0.053882293,0.005285721,0.05625584,-0.0505303,-0.4065364020051775,-0.3850134306627414,91.44173010450592,0.06598778086646477,-0.199167172879346,0.20072275900339523
1733312835536244,-0.23639876,0.22351483,-9.904526,0.00799299,-0.016907237,-0.054138087,0.004593632,0.05827681,-0.031974167,-0.405932756397074,-0.3861744290305879,91.44373896449996,0.07545570101294041,-0.14512479598081204,0.2511074992545159
1733312835544244,-0.23634844,0.22337489,-9.904011,0.00805081,-0.016444258,-0.054430146,0.007227412,0.05787238,-0.03650738,-0.405040031364813,-0.3871483401337703,91.44581636497755,0.11159062903262758,-0.12173888789780238,0.2596750596987661
1733312835552244,-0.2362919,0.22323535,-9.903525,0.008110359,-0.015990986,-0.054764517,0.0074437116,0.056659102,-0.041796356,-0.40396935063637623,-0.3878938616614592,91.44779799946521,0.13383509105458885,-0.09319019096111295,0.2477043109582791
1733312835568244,-0.23630756,0.22312412,-9.902183,0.00817544,-0.0150408605,-0.055860456,0.0040675513,0.05938281,-0.06849621,-0.4020718447119879,-0.38933909356397983,91.45318904646064,0.11859412027427098,-0.09032699390753918,0.33694043721401806
1733312835576244,-0.23637645,0.22314857,-9.90135,0.008213144,-0.014540889,-0.05618182,0.004712958,0.062496398,-0.040170267,-0.401027043486222,-0.38957279281801277,91.4557241090938,0.13060015322073942,-0.02921240675411671,0.31688282914346105
1733312835584244,-0.23644286,0.22317345,-9.900557,0.008234118,-0.014052644,-0.05651583,0.0026217892,0.06103061,-0.041751653,-0.39983801359471627,-0.3894867197731318,91.45832719298541,0.14862873643821353,0.010759130610116898,0.3253854864525828
1733312835592244,-0.23650694,0.22319897,-9.8998,0.008242476,-0.013548044,-0.05688379,0.0010447111,0.063075095,-0.04599476,-0.39858513467353895,-0.38945043355484654,91.46103978768384,0.15660986514717018,0.004535777285664103,0.33907433730417924
1733312835608244,-0.236628,0.22325253,-9.8984,0.008313364,-0.01254896,-0.058191903,0.0044305343,0.06244273,-0.081757076,-0.39631358637162367,-0.38840915256177283,91.46675167098114,0.14197176886970453,0.06508006206710631,0.35699270608107025
1733312835616244,-0.23668489,0.22328058,-9.897756,0.008348083,-0.012068664,-0.058620144,0.004339847,0.06003701,-0.05353009,-0.39524876033756207,-0.38729628647709774,91.46971673036538,0.13310325425769787,0.13910826058438738,0.37063242303058647
1733312835624244,-0.23672777,0.22330567,-9.897145,0.008383833,-0.0115951635,-0.05903403,0.0044687185,0.059187524,-0.051735897,-0.3941310274330753,-0.38570412248418307,91.47277055372868,0.13971661306084246,0.19902049911433037,0.3817279204115578
1733312835632244,-0.2367685,0.22333175,-9.896584,0.008424136,-0.011130248,-0.059567288,0.0050378726,0.05811441,-0.06665708,-0.3932847711824334,-0.3837036056956715,91.47714298586085,0.10578203133024658,0.2500645985639454,0.5465540165223239
1733312835648244,-0.23684347,0.22338675,-9.895564,0.008499929,-0.010226085,-0.061205328,0.004737056,0.056510206,-0.10237749,-0.39214627157369936,-0.37930753446000404,91.48605198090902,0.0711562255458739,0.2747544522292171,0.5568121905104603
1733312835656244,-0.23687777,0.22341588,-9.895104,0.00853715,-0.009767072,-0.061833885,0.0046526548,0.05737657,-0.07856963,-0.39168244969235855,-0.37716160768281176,91.49042449429486,0.05797773516760115,0.2682408471490335,0.5465641732293104
1733312835664244,-0.23690999,0.22344613,-9.894676,0.008577062,-0.009325522,-0.062468454,0.004988978,0.05519378,-0.079321206,-0.3910815476274006,-0.3746871049510357,91.49451696791813,0.07511275811974732,0.30931284147201005,0.511559202909682
1733312835672244,-0.23694012,0.22347756,-9.8942795,0.008618344,-0.008885383,-0.06313396,0.005160225,0.05501741,-0.08318852,-0.3905011398350322,-0.3718750350461577,91.49911480098328,0.07255097404605076,0.3515087381097487,0.5747291331425349
1733312835688244,-0.23699394,0.22354396,-9.89358,0.008726709,-0.008008375,-0.064918615,0.00677281,0.054812986,-0.11154077,-0.3898635202835295,-0.3661188271088056,91.50832447232055,0.039851221968917654,0.3597629960845046,0.5756044585803497
1733312835696244,-0.23724766,0.22321956,-9.893475,0.008689401,-0.0076820464,-0.065636754,-0.0046634814,0.040791053,-0.08976738,-0.3893018164113053,-0.36319531353123563,91.51268295731481,0.07021298402802689,0.3654391971962462,0.5448106242815538
1733312835704244,-0.2374941,0.22290516,-9.893392,0.008641782,-0.0073630637,-0.06629692,-0.005952315,0.03987283,-0.08252076,-0.38854086416039113,-0.35983554063249196,91.51608534678208,0.09511903136426932,0.41997161234296004,0.42529868340883187
1733312835712244,-0.23773353,0.22260046,-9.893332,0.008596176,-0.0070459624,-0.066976465,-0.0057007414,0.03963767,-0.08494313,-0.38819530203994274,-0.356151542159348,91.51954199599973,0.04319526505605207,0.46049980914299604,0.4320811522059107
1733312835728244,-0.23819129,0.22201945,-9.893283,0.008576125,-0.0064130956,-0.068815514,-0.0012532108,0.03955417,-0.11494057,-0.3880183277850133,-0.3485168738155182,91.52674933892527,0.011060890933090652,0.4771667714893622,0.45045893284669025
1733312835736244,-0.2384099,0.22174264,-9.893292,0.0085622,-0.00611658,-0.06949108,-0.0017406418,0.037064426,-0.084445804,-0.3879577883770664,-0.3447424582153355,91.53017183940665,0.007567425993354694,0.4718019500228416,0.42781256017084074
1733312835744244,-0.23862186,0.22147462,-9.893323,0.008559937,-0.005816956,-0.07011878,-0.00028288923,0.037453018,-0.07846206,-0.3881272828974223,-0.3408248744088486,91.53358750885793,-0.021186815044484247,0.4896979758108586,0.42695868141202775
1733312835752244,-0.23882727,0.22121514,-9.893388,0.008561799,-0.005519071,-0.07080058,0.00023283063,0.037235614,-0.08522532,-0.38866475164160774,-0.33679053663187813,91.5366959219198,-0.06718359302318064,0.5042922221213093,0.38855163273341303
1733312835760244,-0.23903058,0.22094496,-9.893474,0.008554491,-0.005241052,-0.07165848,-0.000913511,0.034752417,-0.10723713,-0.3892657189532448,-0.33275721439800926,91.54006379079993,-0.07512091395463041,0.5041652792336091,0.4209836100161194
1733312835776244,-0.23941866,0.22042944,-9.893706,0.008535274,-0.004710923,-0.07305974,-0.0012010569,0.033133052,-0.08757877,-0.3902944371155562,-0.32539422906687715,91.54881556732377,-0.06429488514446526,0.4601865831957559,0.5469860327396894
1733312835784244,-0.23960364,0.2201836,-9.89385,0.008547176,-0.00446288,-0.073622465,0.0014876713,0.031005356,-0.07034093,-0.39088104569602466,-0.32175119886513986,91.55318111695416,-0.07332607255855675,0.4553787752171634,0.5456937037987722
1733312835792244,-0.23978268,0.21994539,-9.894012,0.0085555995,-0.00421444,-0.07422993,0.0010529766,0.031055007,-0.07593352,-0.3917054779389569,-0.31827228379796163,91.55754657029664,-0.10305403036652393,0.43486438339727773,0.5456816678085731
1733312835808244,-0.24012347,0.21949135,-9.894391,0.008595189,-0.0036981474,-0.075739406,0.0024743492,0.03226829,-0.09434204,-0.39444915276513653,-0.3120578648928511,91.5660457884795,-0.1714796766362282,0.3884011815694108,0.5312011364289729
1733312835816244,-0.24029717,0.21881026,-9.894339,0.008544286,-0.003691956,-0.07623629,-0.006362912,0.000773929,-0.06211083,-0.39629179294648376,-0.3093854607211303,91.57001541070132,-0.23033002266840147,0.334050521465096,0.49620277772873583
1733312835824244,-0.24046603,0.21814574,-9.894309,0.008511436,-0.003673545,-0.07663425,-0.004106201,0.0023013563,-0.04974473,-0.3978336163983138,-0.3066406988694517,91.57237901900072,-0.1927279314787632,0.3430952314598186,0.29545103742441303
1733312835832244,-0.2406184,0.21749304,-9.894302,0.008520212,-0.0036480965,-0.0771075,0.0010969816,0.0031810775,-0.059155744,-0.39906672590716213,-0.30405994461103114,91.5747495471676,-0.15413868860603805,0.3225942823025739,0.29631602086089637
1733312835848244,-0.24090865,0.21623482,-9.894358,0.008554341,-0.003571032,-0.07831441,0.002133078,0.0048165238,-0.075432,-0.40118921723941287,-0.2998986741027305,91.58006506625323,-0.13265570826566783,0.26007940676878827,0.33221994285115547
1733312835856244,-0.24104677,0.21562846,-9.894418,0.008566736,-0.0035313624,-0.07875248,0.0015493714,0.00495871,-0.05475897,-0.4024291764513102,-0.2984333651077387,91.5824356849823,-0.15499490148716846,0.18316362437397996,0.2963273411340561
1733312835864244,-0.24118036,0.21503678,-9.894499,0.008582568,-0.0034775329,-0.079179846,0.001978944,0.0067286887,-0.05342066,-0.4039091978020243,-0.29751279790511725,91.58507333721805,-0.18500266883925826,0.11507090032768248,0.3297065294681339
1733312835872244,-0.24130982,0.21445939,-9.894578,0.008445817,-0.0035012364,-0.060815733,-0.017093843,-0.0029629443,2.295514,-0.4043815375198105,-0.2979004697345414,91.54029780788848,-0.05904246472327759,-0.04845897867801499,-5.596941166195176
1733312835888244,-0.24156053,0.2133428,-9.894052,0.0081320675,-0.0036156534,-0.00600369,-0.019609345,-0.0071510584,3.4257526,-0.1921817775113933,-0.4269415203007726,91.29880530164834,13.262485000526073,-8.06506566038945,-15.09328164000891
1733312835896244,-0.24168207,0.21280405,-9.893534,0.0077902195,-0.0035174019,0.016428774,-0.042731,0.012281437,2.804058,0.05878682560938875,-0.576943235938222,91.00635347361712,31.37107539009775,-18.75021445468119,-36.55647850390098
1733312835904244,-0.24181019,0.21228911,-9.892882,0.0071249707,-0.0031439634,0.03192914,-0.0831561,0.046679806,1.9375455,0.3376693977606474,-0.7325414171194389,90.61998434960334,34.860321518907334,-19.449772647652093,-48.296140501723904
1733312835912244,-0.24194089,0.21178983,-9.892121,0.006149865,-0.0025909452,0.04742166,-0.121888176,0.06912727,1.936565,0.6345176946239646,-0.8846496606168762,90.18654136273412,37.10603710791464,-19.013530437179668,-54.18037335865244
1733312835928244,-0.24221984,0.21084279,-9.890268,0.0032734682,-0.00095440866,0.07844358,-0.1797748,0.10228353,1.9388698,1.2790315510554515,-1.1734481274450284,89.18130823712816,40.282116026967934,-18.049904176759508,-62.82707035037189
1733312835936244,-0.24237351,0.21039712,-9.889193,0.0013103458,0.00012835696,0.09397654,-0.24539027,0.1353457,1.9416202,1.625153245466342,-1.3107913549335282,88.60952539671231,43.265211801361325,-17.167903436062467,-71.47285505198144
1733312835944244,-0.2420969,0.21018822,-9.8874445,-0.0008791926,0.0014642127,0.10966258,-0.27369228,0.16698195,1.9607543,1.9883363468096609,-1.4441014125027587,87.9918251152622,45.39788766791485,-16.663757196153835,-77.21253518126373
1733312835952244,-0.24184738,0.20999555,-9.885598,-0.0034506572,0.0029880018,0.12537567,-0.32143304,0.19047363,1.9641368,2.3697720321108586,-1.572316598503034,87.32863893429798,47.67946066264969,-16.0268982500344,-82.89827262052785
1733312835968244,-0.24144104,0.20966463,-9.881606,-0.009784491,0.0066175135,0.15682825,-0.39586458,0.22684447,1.9657862,3.186127093686521,-1.8054597167671678,85.86535564309054,51.02219134847893,-14.571444891508358,-91.4552057004651
1733312835976244,-0.2412985,0.20952007,-9.879458,-0.013592658,0.008705276,0.17257646,-0.47602084,0.26097032,1.9685253,3.6183572065868033,-1.90980707632478,85.06523052136785,54.02876411253524,-13.043419944701531,-100.01564021533618
1733312835984244,-0.24119498,0.20939766,-9.877208,-0.017824534,0.011013422,0.18835825,-0.52898455,0.28851825,1.9727236,4.0666653564468165,-2.0073315014859037,84.22077620885342,56.03851873250167,-12.190553145140438,-105.5567890643044
1733312835992244,-0.2411336,0.20929916,-9.874876,-0.022483453,0.013538604,0.20418923,-0.5823648,0.31564766,1.9788723,4.532730835956635,-2.0975384868380216,83.33094582146057,58.258184938727354,-11.275873169014734,-111.22879842410535
1733312836008244,-0.24115075,0.20918088,-9.869898,-0.033183265,0.019293115,0.23598194,-0.66873825,0.3596569,1.9870446,5.519482451560826,-2.246813708545335,81.41574815860427,61.67197597526194,-9.329701356707078,-119.69985392851925
1733312836016244,-0.24123622,0.20916468,-9.867249,-0.039229214,0.022529697,0.2519461,-0.75574356,0.40457278,1.9955187,6.036706711133142,-2.303417418780399,80.39090859187971,64.65303244653951,-7.075463779383045,-128.10494584057065
1733312836024244,-0.24137767,0.20917968,-9.8644905,-0.045751352,0.026029106,0.26795667,-0.81526715,0.43742612,2.0013227,6.568329987953048,-2.349273616075407,79.3212904317382,66.45290960248816,-5.732024661875999,-133.70227001768765
1733312836032244,-0.24157862,0.20922805,-9.861625,-0.052736714,0.029806497,0.284033,-0.87317026,0.47217378,2.0095408,7.1158067177151825,-2.3850033698108035,78.20688302836949,68.43459122026688,-4.4662192169245705,-139.30092542108886
1733312836048244,-0.24214599,0.2094065,-9.855562,-0.06814222,0.038217556,0.3164243,-0.9628441,0.52569115,2.0244567,8.262455987676587,-2.4174440911094193,75.84606714143646,71.66557937258777,-2.027545081163473,-147.55099293331406
1733312836056244,-0.24253394,0.20955513,-9.852385,-0.07660224,0.0429016,0.33273098,-1.0575027,0.5855057,2.0383334,8.858310918156821,-2.4098396129715165,74.60029812964156,74.48186631002918,0.9505597672378547,-155.72112647436347
1733312836064244,-0.24299647,0.20974676,-9.849093,-0.08556191,0.047927924,0.3491424,-1.1199582,0.6282902,2.0514278,9.466124477525414,-2.3867997727533385,73.31075657093845,75.97669492107408,2.8799800272722362,-161.1926948378882
1733312836072244,-0.24414644,0.21012948,-9.845048,-0.09540343,0.05343041,0.36585525,-1.2301904,0.68781054,2.0891054,10.086491319132303,-2.3497425185489633,71.97737658822466,77.54585520086128,4.6321567755468935,-166.67249783922495
1733312836088244,-0.24666232,0.21103717,-9.83665,-0.11653995,0.06560548,0.39962605,-1.3210322,0.76094174,2.1106749,11.371625473795952,-2.229877712010212,69.18258649105651,80.32088466647805,7.491550408671966,-174.6743810730092
1733312836096244,-0.24803655,0.21156874,-9.832295,-0.12785801,0.07234193,0.4166864,-1.4147581,0.8420562,2.1325424,12.033527371156577,-2.140679718569658,67.72126621344759,82.737737170078,11.149749180069238,-182.66503470111442
1733312836104244,-0.24949394,0.21215677,-9.827833,-0.13967045,0.07950843,0.43388605,-1.4765542,0.89581305,2.1499581,12.70424392449615,-2.03120246792194,66.21755420643781,83.83956916744673,13.684656330964787,-187.96400087622266
1733312836112244,-0.25103942,0.21280314,-9.823288,-0.15194634,0.08715312,0.4512152,-1.5344862,0.95558625,2.1661444,13.382499774593663,-1.9034628005116836,64.67128456591088,84.78198126218912,15.967458426282011,-193.28370506586637
1733312836128244,-0.25440785,0.21429195,-9.813863,-0.17790905,0.10397503,0.48636794,-1.6226693,1.0513691,2.1970458,14.767109582798165,-1.592977584918368,61.45208899704558,86.53811301278134,19.405325974582215,-201.19972305408103
1733312836136244,-0.2562387,0.21514273,-9.808977,-0.1915751,0.11320285,0.50420755,-1.708256,1.1534774,2.2299511,15.472636603856564,-1.4043980627001713,59.78036733820362,88.19087763229994,23.5724402772746,-208.96520735524533
1733312836144244,-0.25817233,0.2160704,-9.803975,-0.2056795,0.1230192,0.5222241,-1.7630513,1.2270445,2.252072,16.182416606661914,-1.1913011340982782,58.06777530374579,88.72250035066872,26.637116075236623,-214.07400430722834
1733312836152244,-0.26021236,0.2170797,-9.798852,-0.2201886,0.13344243,0.54043996,-1.813637,1.3029034,2.2769792,16.89333453671698,-0.9555971582582495,56.31399074395661,88.86474125688353,29.462996980003584,-219.22306997364774
1733312836168244,-0.2646247,0.2193632,-9.788238,-0.25034636,0.15621206,0.5774675,-1.8848599,1.4231018,2.314221,18.320879424647547,-0.42119722722940617,52.681459720536125,89.22155549566023,33.39999568930271,-227.03318896378022
1733312836176244,-0.26700336,0.22064796,-9.782767,-0.2659633,0.16863891,0.59630364,-1.9521153,1.5533565,2.3545175,19.0381573956802,-0.11809661569153472,50.804167888360446,89.65974637908201,37.88757644223393,-234.6614790219601
1733312836184244,-0.26949584,0.22205634,-9.777167,-0.28188962,0.18179819,0.6153849,-1.9907913,1.6449093,2.3851542,19.75313200018048,0.2123314305127708,48.88721680653126,89.37182556253462,41.30350577553819,-239.61888522864876
1733312836192244,-0.2726764,0.22379518,-9.77129,-0.29841033,0.1958578,0.63475233,-2.0650885,1.7574503,2.420932,20.461234105973023,0.5683783912464404,46.93171667322665,88.51276322406794,44.505870091708694,-244.43751666307517
1733312836208244,-0.27937695,0.22761051,-9.759137,-0.33215475,0.22626448,0.6742269,-2.1090264,1.9004177,2.467159,21.854654642696516,1.3483935602213901,42.89895501105794,87.08878354521828,48.75094806093435,-252.0476038855444
1733312836216244,-0.28290117,0.2296998,-9.752857,-0.3492676,0.24267021,0.69434696,-2.1391063,2.0507164,2.5150104,22.54088055342097,1.7747584007786381,40.8213477743031,85.77823884055665,53.29560506965601,-259.7009045943554
1733312836224244,-0.28654373,0.23191908,-9.746437,-0.36653793,0.259931,0.71474016,-2.1587908,2.1575987,2.549149,23.216423699445798,2.229001503899139,38.70429275073139,84.44289325310386,56.78038789006264,-264.631877946464
1733312836232244,-0.29030588,0.23427528,-9.739902,-0.38385457,0.27804384,0.7354079,-2.1645799,2.2641046,2.5834663,23.87553449900012,2.710749128144988,36.54769827006925,82.3888499442903,60.21845303073108,-269.57431008276734
1733312836248244,-0.2981918,0.23942594,-9.726389,-0.41853833,0.31682995,0.7776113,-2.167735,2.4241319,2.637714,25.133915721270892,3.744377658788711,32.109666192472865,78.6488263919231,64.60178316523269,-277.37700484977387
1733312836256244,-0.3023157,0.2422323,-9.719407,-0.43576702,0.3375301,0.7991493,-2.1535864,2.5875194,2.6922448,25.73428846174762,4.2946452906339,29.827093844894314,75.04659255959139,68.7834539806486,-285.32154344731873
1733312836264244,-0.30655977,0.24520354,-9.71227,-0.45284957,0.35914725,0.8209667,-2.1353176,2.702143,2.7271805,26.31334302994472,4.869878586787352,27.505900086430984,72.38182102463685,71.9041620191815,-290.1492198079164
1733312836272244,-0.31092763,0.2483533,-9.704992,-0.4720753,0.3848235,0.83498704,-2.4032183,3.209531,1.7525403,26.85005384765295,5.466363587447935,25.12800563580435,67.08885221352928,74.56062508257286,-297.2368063283292
1733312836288244,-0.32018834,0.2554448,-9.690567,-0.5229947,0.45892236,0.81576276,-3.1824613,4.6311784,-1.2015178,27.516712898666103,6.5107829419963785,20.074851096084465,41.666190688322075,65.27620965927775,-315.8221587324929
1733312836296244,-0.3250932,0.25943816,-9.683521,-0.5470389,0.49781004,0.8064981,-3.0055268,4.8609595,-1.1580809,27.64057941601492,6.9409385054696635,17.392430851875183,15.483314668601738,53.76944543416058,-335.30253052616035
1733312836304244,-0.33017024,0.26374277,-9.676566,-0.56980294,0.5377491,0.7972707,-2.8455033,4.9923844,-1.1534244,27.620419538931248,7.315898742481015,14.61418900704372,-2.5199846354589477,46.87002962641897,-347.2802306039328
1733312836312244,-0.3354069,0.2683637,-9.669696,-0.59068227,0.57798517,0.78920907,-2.609916,5.0295067,-1.0077059,27.454559670710854,7.627749736798204,11.740964239022595,-20.732483527549057,38.98137428964858,-359.1530960026405
1733312836328244,-0.34777355,0.2799962,-9.6540365,-0.6269214,0.6594813,0.7763302,-2.2649467,5.0935073,-0.80493087,26.763977975857685,8.045748394865132,5.688325072667926,-43.16135592832308,26.124916129183028,-378.2899478971669
1733312836336244,-0.35410795,0.2862686,-9.646344,-0.64164364,0.6999104,0.77092177,-1.8402784,5.053639,-0.6760507,26.267139827042534,8.171884171025235,2.5297052569118064,-62.104768601894,15.76697202001275,-394.82747696951486
1733312836344244,-0.36051968,0.2928424,-9.638734,-0.65403193,0.739834,0.76611644,-1.5485361,4.990451,-0.6006658,25.667277498643383,8.238760148889346,-0.7005282319337186,-74.98279104989368,8.359497233014011,-403.77918610569066
1733312836352244,-0.36699075,0.29971308,-9.631235,-0.6640634,0.7790071,0.7617596,-1.2539327,4.896633,-0.54460764,24.977504987134406,8.23130324010601,-4.003587074970231,-86.2215639386224,-0.9321135979169691,-412.88235537956405
1733312836368244,-0.3800379,0.3143187,-9.616452,-0.6769984,0.8543785,0.7539627,-0.8084364,4.710715,-0.4873052,23.410560147634182,8.006438085217912,-10.798769347604475,-97.93405246876378,-14.054072180506143,-424.6988920396402
1733312836376244,-0.38657779,0.32203695,-9.609161,-0.6799989,0.89020336,0.75039226,-0.3750622,4.478104,-0.44630465,22.53846465425748,7.805141304256877,-14.273563046582298,-109.01193667208773,-25.162097620129423,-434.34921237222795
1733312836384244,-0.39310533,0.3300182,-9.6019335,-0.6807966,0.9244817,0.7470831,-0.09971856,4.2847915,-0.4136413,21.606714597817955,7.535228561745234,-17.796886269838932,-116.46875705494075,-33.7390928139553,-440.4154029070792
1733312836392244,-0.39960495,0.33825323,-9.594767,-0.67933834,0.9572243,0.74387294,0.18228589,4.0928273,-0.40127334,20.63233771635505,7.190694930192805,-21.366016114797915,-121.79711018286338,-43.06670394405364,-446.1412306198727
1733312836408244,-0.41244715,0.3554255,-9.580609,-0.67041254,1.016847,0.7376326,0.5578622,3.726419,-0.39002296,18.612151326149917,6.314818611644591,-28.656151796781963,-126.26164938782075,-54.742269909263406,-455.63348012400303
1733312836416244,-0.41876066,0.36433083,-9.573651,-0.6633012,1.04343,0.73462975,0.8889138,3.3228693,-0.37535277,17.57219345898723,5.798910726438679,-32.34235055937236,-129.994733395336,-64.48848565073901,-460.7748453237998
1733312836424244,-0.42498562,0.37342605,-9.566748,-0.6546834,1.0676844,0.73174155,1.0772272,3.031805,-0.3610253,16.520669846939736,5.224455872749612,-36.05450713446992,-131.4404515059365,-71.8068567111334,-464.019571887195
1733312836432244,-0.43111107,0.38269234,-9.559896,-0.6447098,1.0895058,0.7289278,1.2466981,2.7276723,-0.35171953,15.47588914481538,4.590700081308871,-39.790805178113104,-130.59758776554466,-79.21947393009258,-467.03725545539817
1733312836440244,-0.4371272,0.3921104,-9.553097,-0.63356805,1.1087917,0.72617555,1.392722,2.4107397,-0.34403053,14.452011757531245,3.9063831964400317,-43.547595180969694,-127.98467341051666,-85.5396106086049,-469.5987503570737
1733312836456244,-0.44995353,0.41352078,-9.541134,-0.609116,1.141478,0.72073,1.5282519,2.0428896,-0.34034622,12.474802021810165,2.402790832046999,-51.129463623179326,-123.57560848256756,-93.97452277456456,-473.8667776381018
1733312836464244,-0.4561749,0.4243416,-9.535194,-0.5955915,1.1542052,0.7183337,1.6905664,1.5909075,-0.2995357,11.524937583944975,1.5745439732700017,-54.95609039445332,-118.73305473314868,-103.53085734712461,-478.3283464092497
1733312836472244,-0.4622457,0.43522295,-9.529309,-0.58169395,1.1642565,0.7162184,1.7371922,1.2564062,-0.26441365,10.617042814115466,0.6854565699072481,-58.83531801626208,-113.48684622868875,-111.13592542034421,-484.9034527260944
1733312836488244,-0.47393012,0.4570859,-9.5176,-0.5535853,1.1763676,0.7129175,1.756791,0.7569491,-0.20630656,8.937141517268083,-1.2007015223507944,-66.64634301486439,-104.99383105296147,-117.88488076612767,-488.189062412644
1733312836496244,-0.47954538,0.46802732,-9.511771,-0.53981924,1.178519,0.711806,1.7207562,0.26892126,-0.13893843,8.159258243585834,-2.181345491458266,-70.57764548395123,-97.23540921028109,-122.58049613843393,-491.41280863585604
1733312836504244,-0.48501337,0.47894928,-9.505954,-0.52653515,1.1781496,0.7111563,1.6605108,-0.046178695,-0.08121132,7.427187278525089,-3.1868651820840315,-74.52885920192877,-91.50887063259304,-125.68996132822066,-493.901714747193
1733312836512244,-0.49033922,0.48983267,-9.500146,-0.5139299,1.17532,0.71089476,1.5756562,-0.35369393,-0.032693148,6.754751152302994,-4.212516986412946,-78.50137366109405,-84.05451577776192,-128.20647554111437,-496.5643073956599
1733312836528244,-0.5005923,0.5114114,-9.488543,-0.4914469,1.1628284,0.71169233,1.4051869,-0.7807239,0.049848106,5.622235684282296,-6.274404917535676,-86.51604806297406,-70.78221675129363,-128.86799569517063,-500.9171501175006
1733312836536244,-0.50556004,0.5220578,-9.482771,-0.48228455,1.1532376,0.71287733,1.1452957,-1.198858,0.148125,5.1590095353978205,-7.299514074029792,-90.56309076898518,-57.90326861055941,-128.1386445617645,-505.8803382513897
1733312836544244,-0.5104257,0.53259563,-9.476992,-0.47446054,1.1417788,0.714601,0.9780004,-1.4323442,0.21545587,4.760099136750887,-8.321634147198578,-94.62202854854407,-49.86379983086661,-127.7650091460983,-507.36722244486066
1733312836552244,-0.515201,0.54301137,-9.4712,-0.46808437,1.1286136,0.71684414,0.7970221,-1.6456543,0.28039515,4.439383378918601,-9.347245450595198,-98.71486190248407,-40.08946972903578,-128.20141292457743,-511.60416924250075
1733312836568244,-0.524081,0.5641149,-9.459981,-0.45949078,1.0983716,0.72308904,0.5370993,-1.8901228,0.3903061,4.040961513203287,-11.362425430160483,-107.0083803796472,-24.90136660720711,-125.94874872283035,-518.3449048226959
1733312836576244,-0.5282169,0.57477045,-9.454533,-0.45745027,1.0816301,0.727094,0.25506318,-2.0926893,0.5006194,3.9532676280418197,-12.33535480745842,-111.2283297865873,-10.96173564518346,-121.61617216224215,-527.4936758675119
1733312836584244,-0.53232086,0.5852515,-9.449041,-0.45721146,1.0638772,0.731756,0.02985075,-2.2191107,0.58274716,3.9311644413576783,-13.281279472506528,-115.49053841717581,-2.762898335517701,-118.24058313101337,-532.7760788235634
1733312836592244,-0.5364077,0.5955515,-9.443532,-0.45882058,1.0452558,0.7369918,-0.20113958,-2.3276806,0.6544813,3.9836726396686393,-14.197298084440877,-119.79691858118579,6.563524788870136,-114.5023264917937,-538.2975205012477
1733312836608244,-0.5445891,0.6155628,-9.432352,-0.4686001,1.005795,0.7493808,-0.6112195,-2.4662986,0.77431273,4.333912376213765,-15.885061756515313,-128.52264332631972,21.889983534070378,-105.48522950465218,-545.3577965708714
1733312836616244,-0.5487268,0.62527627,-9.426671,-0.4762518,0.9856012,0.75648797,-0.9564645,-2.5242267,0.88839227,4.622295261875495,-16.638541004129493,-132.94254303384096,36.047860707716204,-94.18490595177238,-552.4874634401526
1733312836624244,-0.5529158,0.63479364,-9.420923,-0.48569816,0.9653186,0.764159,-1.180794,-2.5353208,0.9588822,4.979234665781644,-17.337071285120427,-137.40885080470244,44.617425488268665,-87.31628512386676,-558.2884713576844
1733312836632244,-0.5571709,0.6441155,-9.415106,-0.49695268,0.94512016,0.77231854,-1.4068148,-2.524808,1.0199398,5.405503446686393,-17.98576517199659,-141.92141854246182,53.283597613093654,-81.08673585952053,-564.070967219925
1733312836648244,-0.5659378,0.6621815,-9.403241,-0.52458775,0.90560776,0.7904269,-1.7271917,-2.4695246,1.131773,6.467141677145881,-19.104977093546186,-151.081043711259,66.35238940371802,-69.95074509684984,-572.4765730498241
1733312836656244,-0.57047725,0.670933,-9.397216,-0.5408494,0.88655627,0.80028236,-2.0327046,-2.3814363,1.2319311,7.082123162378686,-19.552171711642618,-155.72318337785396,76.87268565410047,-55.89932726205374,-580.2674583243689
1733312836664244,-0.57513833,0.6795036,-9.391102,-0.5586233,0.86817783,0.81062555,-2.2217407,-2.2973044,1.2928991,7.735523766021958,-19.919607526966164,-160.40345697473234,81.67507545540903,-45.92947691544357,-585.0341996097951
1733312836672244,-0.57999974,0.6878785,-9.384895,-0.5783633,0.8504469,0.82143253,-2.467498,-2.216369,1.3508722,8.423809139716294,-20.21037499977915,-165.1192838028946,86.03567171179199,-36.34593410162323,-589.4783535202861
1733312836688244,-0.59018964,0.70413023,-9.372196,-0.62170583,0.8178863,0.8443092,-2.708908,-2.0350366,1.4297924,9.903201972061229,-20.55235482218585,-174.59598358978914,92.46205202155843,-21.37373890041874,-592.2937366809073
1733312836696244,-0.5958386,0.7114621,-9.365671,-0.64543813,0.80281514,0.85630596,-2.966538,-1.8838941,1.4995931,10.690698175535609,-20.58992413497807,-179.3703422784004,98.4370254342975,-4.696164099027055,-596.7948360764059
1733312836704244,-0.60166556,0.7186622,-9.359043,-0.6701157,0.78892434,0.86865836,-3.0846968,-1.7363503,1.5440508,11.489781063319086,-20.540995932318342,175.8443436702186,99.8853609729346,6.1160253324657585,-598.1642564226279
1733312836712244,-0.60767806,0.7257408,-9.35234,-0.6956103,0.7762841,0.8812984,-3.1868217,-1.5800296,1.5800073,12.291379712476463,-20.41313386229124,171.04253823039704,100.19983114467217,15.982758753387635,-600.2256799776934
1733312836728244,-0.62028533,0.739576,-9.338607,-0.74862564,0.755029,0.9074434,-3.3134594,-1.3284422,1.6340612,13.881092837516935,-19.93766711620951,161.40180847448556,99.35707031502949,29.716671630108213,-602.5456097444677
1733312836736244,-0.62689114,0.7463548,-9.331573,-0.77596706,0.746481,0.9208364,-3.417678,-1.0685027,1.674123,14.65586001926804,-19.581092561526873,156.5733320979557,96.84589771888822,44.57181933532945,-603.5595470662342
1733312836744244,-0.63372487,0.75304383,-9.324426,-0.80380946,0.73929983,0.9344862,-3.4803002,-0.8976459,1.7062275,15.402112189096881,-19.140220725332394,151.746993970117,93.28152122860502,55.10897952430993,-603.2922659798387
1733312836752244,-0.64077055,0.7596666,-9.317163,-0.83185226,0.73355794,0.94835037,-3.505349,-0.7177367,1.7330198,16.109745169404395,-18.62145458570971,146.93349692762874,88.45412253843934,64.84576745283532,-601.6871303110291
1733312836760244,-0.64802986,0.7662349,-9.309784,-0.86001223,0.7292266,0.96229297,-3.519997,-0.5414188,1.7428248,16.77700540755451,-18.032755617028183,142.12579848475363,83.40752976876396,73.58737108519125,-600.962305359391
1733312836776244,-0.6631918,0.77925366,-9.294707,-0.9161983,0.72481555,0.99036217,-3.5116298,-0.2756901,1.7543248,17.992319919763403,-16.671560261529365,132.5303887918084,75.95715701305606,85.07470971867596,-599.7131058090757
1733312836784244,-0.6710931,0.78572696,-9.287008,-0.9439967,0.72466093,1.0045239,-3.4748015,-0.019326806,1.7702131,18.530220892035718,-15.905832564197103,127.7452461869189,67.23762153403945,95.7159621665328,-598.1428256111877
1733312836792244,-0.6792057,0.7921907,-9.279189,-0.97146726,0.7258191,1.0187783,-3.433816,0.14477223,1.7818062,19.007779863265768,-15.089871712432826,122.9691130929203,59.694871403755975,101.9951064705348,-597.0166367498258
1733312836808244,-0.6960534,0.8051316,-9.263195,-1.0250384,0.73196757,1.0473042,-3.348194,0.38427857,1.7828642,19.755738721551147,-13.336575346586235,113.43946532636738,46.74742864283625,109.5810228654119,-595.6029854095576
1733312836816244,-0.7061597,0.8103745,-9.255169,-1.0519432,0.73604095,1.0615336,-3.3631024,0.5091727,1.778677,20.025502886869713,-12.40951383809621,108.68489406136952,33.72052066482087,115.88268856125319,-594.3214081247319
1733312836824244,-0.71643835,0.8156711,-9.24702,-1.0781233,0.74127835,1.0756799,-3.2725184,0.654675,1.7682909,20.23013979221348,-11.456823786453583,103.94711524671054,25.57961316797071,119.08625645532837,-592.222351832373
1733312836832244,-0.72688407,0.8210297,-9.238779,-1.1034794,0.74759614,1.0898165,-3.1695065,0.78972423,1.767069,20.36765863713911,-10.479412016881396,99.2141918259716,17.189855615703944,122.17647119652347,-591.6154275923677
1733312836848244,-0.7482533,0.8319626,-9.221933,-1.1514672,0.763158,1.1178449,-2.9992385,0.9726174,1.7517804,20.43517704925022,-8.489107015559997,89.74705862102711,4.219900756944255,124.39406258258742,-591.695825309031
1733312836856244,-0.7591635,0.8375501,-9.213331,-1.1739773,0.77221614,1.1317486,-2.8137562,1.1322647,1.7379521,20.362667396694885,-7.495986687070455,85.00558321554095,-9.063706569416896,124.14004106119268,-592.6844256857682
1733312836864244,-0.7702145,0.84322613,-9.204609,-1.1954429,0.78206646,1.145594,-2.6832073,1.2312903,1.7306803,20.217505302274027,-6.512978068942068,80.25490583675852,-18.145261802607283,122.87607726604831,-593.8346723478046
1733312836872244,-0.7813984,0.848996,-9.195769,-1.2157589,0.79258764,1.159377,-2.5395005,1.3151466,1.7228721,19.998521990007962,-5.543434019281683,75.4941263543214,-27.372914033258088,121.19300620754817,-595.0974353046412
1733312836888244,-0.80411565,0.8608117,-9.177736,-1.2528211,0.81526977,1.1868378,-2.3163855,1.417633,1.7163007,19.345570195103697,-3.661621486089655,65.9355235918398,-40.80948718151645,117.61328332450178,-597.4126726550999
1733312836896244,-0.81563944,0.8668755,-9.168574,-1.2695441,0.8272722,1.2004033,-2.0903795,1.500301,1.6956924,18.921235841152303,-2.760804017488923,61.13347303918704,-53.04179424392438,112.60218357509149,-600.2563190815946
1733312836904244,-0.8272616,0.8730466,-9.159297,-1.2850513,0.83958644,1.2138395,-1.9384025,1.5392824,1.6795247,18.43796947229722,-1.8970179610676219,56.313126210559155,-60.40829610688543,107.97325705266262,-602.5433535784852
1733312836912244,-0.8389733,0.8793264,-9.149904,-1.2993313,0.8521003,1.2272067,-1.7849951,1.5642344,1.6708969,17.897921745826853,-1.0783930175555743,51.471654534400635,-67.50596580879589,102.32811793900593,-605.1839595198152
1733312836928244,-0.8626291,0.89221424,-9.1307745,-1.324197,0.8773816,1.2538027,-1.5541091,1.5800818,1.6622468,16.65044104522194,0.393092423367255,41.718963299782146,-77.96754378780705,91.96784005767684,-609.5432021636553
1733312836936244,-0.87455535,0.8988215,-9.121038,-1.3347763,0.8899519,1.2670166,-1.3224034,1.5712826,1.6517489,15.948176003618878,1.0363520198663487,36.80652360382954,-87.78313020038267,80.40744956238672,-614.054961994076
1733312836944244,-0.88737065,0.9055633,-9.111354,-1.3448002,0.902352,1.2801589,-1.252994,1.5500113,1.6427784,15.201122310302674,1.6162648554196013,31.871278500748964,-93.38171166452553,72.48910444415658,-616.9056378850719
1733312836952244,-0.9002179,0.9124152,-9.101581,-1.3535887,0.9145052,1.2932637,-1.0985583,1.519151,1.6380994,14.418917401644451,2.131768025713769,26.920158910342646,-97.7756135822778,64.43789628677095,-618.8899488007899
1733312836968244,-0.9259734,0.9264186,-9.081682,-1.3677187,0.9377536,1.3193853,-0.8831247,1.453027,1.6326009,12.768395022798797,2.9531027017204963,16.954308019577173,-103.15764867785335,51.33341725042045,-622.865680672842
1733312836976244,-0.9388664,0.9335629,-9.071559,-1.3731395,0.9486828,1.3323765,-0.67760044,1.3661458,1.6238986,11.914168309307648,3.2438820085704907,11.93962643773775,-106.77833918639384,36.3474133562493,-626.8351977299279
1733312836984244,-0.95175916,0.9407964,-9.061319,-1.3774797,0.95903,1.3454305,-0.5425215,1.2933984,1.6317515,11.049624221529607,3.448410137877688,6.904776604679666,-108.06801097225515,25.56601616339967,-629.3562291322604
1733312836992244,-0.96464473,0.9481141,-9.050963,-1.3808135,0.96873724,1.3585196,-0.41672584,1.213409,1.6361325,10.180205727220667,3.5679193075034275,1.8521587622390505,-108.67731178861729,14.93864620321743,-631.5772303050769
1733312837008244,-0.99036694,0.9629793,-9.0299015,-1.3846383,0.98597103,1.3848386,-0.23905186,1.0771117,1.6449391,8.445122661608183,3.568392789073857,-8.295039354962183,-108.44269160078035,0.029592598151864012,-634.199882325077
1733312837016244,-1.0031916,0.9705141,-9.019227,-1.3852975,0.9933585,1.3980831,-0.082403414,0.92343235,1.6555636,7.592471020881443,3.4520985087289997,-13.385650166753344,-106.58145509084233,-14.536785043107196,-636.326351473895
1733312837024244,-1.0160096,0.9781062,-9.008433,-1.3852116,0.99986935,1.411436,0.010743736,0.81385666,1.6691087,6.763635548471192,3.255562271881621,-18.485942019843698,-103.60443405128144,-24.567029605922293,-637.5364816362944
1733312837032244,-1.028791,0.9857501,-8.99752,-1.3844534,1.005434,1.4249101,0.09477138,0.69558614,1.6842632,5.97035687809225,2.9774477834975794,-23.59613999794724,-99.15983379736768,-34.76431104800523,-638.7747472629427
1733312837048244,-1.0542283,1.0011618,-8.975336,-1.3812099,1.0136157,1.4521505,0.20272283,0.5113557,1.7025247,4.51812972004941,2.1894628855150002,-33.83672099808199,-90.7641973776775,-49.2490561239112,-640.0363125084216
1733312837056244,-1.0668778,1.0089135,-8.964063,-1.3788673,1.0161506,1.4660195,0.29282272,0.31685826,1.7336308,3.8614256938106446,1.6899031755365803,-38.965280644911616,-82.08800327984565,-62.44496374730247,-641.0699558537036
1733312837064244,-1.079478,1.0166843,-8.952666,-1.376178,1.0176095,1.4800663,0.33615527,0.1823604,1.7558484,3.2523290020504665,1.1260999391468105,-44.09899691297463,-76.1370864700223,-70.47540454872124,-641.7145335078764
1733312837080244,-1.1055945,1.0313699,-8.929776,-1.3707724,1.0167125,1.5087605,0.337854,-0.056058165,1.7933844,2.209510160345835,-0.17455375838447773,-54.37833992076726,-65.17617760653947,-81.29085609570551,-642.4589379870396
1733312837088244,-1.1185606,1.0387188,-8.918137,-1.3679088,1.014588,1.5234267,0.35794076,-0.2655685,1.8332748,1.796615405280902,-0.8983037943062772,-59.525488506109944,-51.61184438311661,-90.46875449022492,-643.3935731678358
1733312837096244,-1.1314737,1.0460495,-8.906364,-1.3650563,1.0112854,1.5383198,0.35656986,-0.41282174,1.8616467,1.4637976760293065,-1.6619935420057041,-64.68091850091356,-41.602216156449444,-95.46121846242838,-644.4287493504519
1733312837104244,-1.1443279,1.053362,-8.89446,-1.3623031,1.0069029,1.5534945,0.3441423,-0.5478114,1.8968283,1.2096370152706282,-2.459621565192045,-69.8433418555948,-31.770082594834793,-99.70350289829263,-645.3029193351556
1733312837112244,-1.1571252,1.0606474,-8.882421,-1.3597093,1.0014454,1.5689172,0.32423434,-0.68219,1.9278376,1.0307266261877577,-3.2891507067037584,-75.01846586311368,-22.363798635358823,-103.69114268896416,-646.8905009398591
1733312837128244,-1.1825606,1.0751021,-8.857928,-1.3553771,0.9873599,1.6005819,0.27076155,-0.88034564,1.9790455,0.8998782135796016,-5.023632404986389,-85.41554251655471,-8.178025788009748,-108.40510614266445,-649.8172908400646
1733312837136244,-1.1952062,1.082254,-8.845501,-1.3538766,0.97877717,1.6168728,0.1875609,-1.0728389,2.036363,0.9569389294457207,-5.908379096687298,-90.6426166817973,7.132589483264872,-110.59333646261356,-653.3842706553253
1733312837144244,-1.2078099,1.0893449,-8.832931,-1.3528839,0.9692543,1.6335173,0.12408196,-1.1903569,2.0805597,1.1011125164601785,-6.787710457173465,-95.892307640208,18.021698376807223,-109.91642006077089,-656.2113698013361
1733312837152244,-1.2203774,1.096367,-8.820214,-1.3525281,0.95882577,1.6504378,0.044479962,-1.3035684,2.1150708,1.3324668417690246,-7.652604313127187,-101.16701362754578,28.919290663605775,-108.11173199421513,-659.3382484172238
1733312837160244,-1.2328862,1.1033517,-8.807349,-1.3527284,0.94782674,1.6676604,-0.025033949,-1.3748779,2.1528153,1.6481472117225635,-8.49961095722471,-106.4694734524909,39.460046244192355,-105.87583051219059,-662.8074781181394
1733312837176244,-1.2578357,1.1170764,-8.781166,-1.3554968,0.9235661,1.7030405,-0.17302482,-1.51629,2.2112577,2.5254445867592907,-10.134746086040185,-117.18848597000877,54.831085939795464,-102.19594555096705,-669.9382823448667
1733312837184244,-1.2702914,1.1238047,-8.767843,-1.3582171,0.9104814,1.7212762,-0.34004447,-1.6355886,2.2794604,3.0800364536276645,-10.909057851555914,-122.59844686328636,69.32398335854671,-96.78897068946635,-676.2451116596968
1733312837192244,-1.2829659,1.1302336,-8.753835,-1.3620445,0.8964567,1.7399248,-0.47841665,-1.7530843,2.331078,3.7073577029861498,-11.637951964351268,-128.04349345573354,78.41515616981061,-91.11176409941909,-680.630824055898
1733312837208244,-1.3083311,1.1427867,-8.725376,-1.3728651,0.8672217,1.7783026,-0.67628914,-1.8271878,2.39861,5.151995915201175,-12.912859408151926,-139.02612561940705,90.28988826343904,-79.68171523754113,-686.4145102295944
1733312837216244,-1.3210407,1.1489052,-8.710921,-1.3799481,0.85220975,1.7979214,-0.88538224,-1.8764957,2.4523585,5.960599181273803,-13.448098759796103,-144.5687775162323,101.07540825907857,-66.90491895552219,-692.8314871031579
1733312837224244,-1.3337812,1.1549155,-8.696313,-1.3881509,0.837081,1.8178048,-1.0253489,-1.8910913,2.4854243,6.822062315786539,-13.913760618125385,-150.14472758534222,107.68289181409206,-58.2077322911603,-696.9937586387396
1733312837232244,-1.3465626,1.1608136,-8.681549,-1.3975139,0.8219431,1.837991,-1.170367,-1.8922387,2.523273,7.731564529743154,-14.30821073498835,-155.7521768534263,113.68777674457678,-49.30626460787061,-700.9311585105113
1733312837248244,-1.3722868,1.1722842,-8.651544,-1.4197278,0.79206324,1.8792003,-1.3883709,-1.8674917,2.5755837,9.655707210406629,-14.86150170630136,-167.05037867597082,120.25891754146724,-34.58068570706299,-706.1376139090321
1733312837256244,-1.3852491,1.1778597,-8.636332,-1.4325577,0.7775799,1.9002404,-1.6037374,-1.8104165,2.6300101,10.642777833219105,-15.006579702745356,-172.73451668063632,123.38382785155953,-18.134749555499646,-710.517250583187
1733312837264244,-1.398291,1.1833322,-8.6209545,-1.4464911,0.7635686,1.9215732,-1.7416774,-1.7514154,2.6665924,11.629672334663713,-15.0584508192223,-178.43631324215755,123.36181268057595,-6.483889559618014,-712.7245701901542
1733312837272244,-1.4114214,1.188706,-8.605408,-1.4614902,0.7501352,1.9431213,-1.8748789,-1.6791745,2.6935189,12.609145173731857,-15.016836941800667,175.84868677700015,122.4341048835179,5.201734677703946,-714.3749976052874
1733312837288244,-1.4379834,1.1991769,-8.573804,-1.4945229,0.72546667,1.9866861,-2.0645483,-1.5417821,2.7227995,14.528750701424695,-14.657726723174777,164.39561050323192,119.9753454808024,22.444388664118232,-715.8172671105143
1733312837296244,-1.451431,1.2042862,-8.557743,-1.5124086,0.7144143,2.0087018,-2.2357106,-1.3815461,2.7519612,15.454210706394298,-14.344121289581068,158.66568439866688,115.68250062120042,39.20067919921355,-716.2407630706277
1733312837304244,-1.4650105,1.209312,-8.541508,-1.5310907,0.7043215,2.030877,-2.3352652,-1.2615993,2.7719138,16.339402988340378,-13.945428607271623,152.93812429719756,110.64903524325983,49.83658528868054,-715.9450126836666
1733312837312244,-1.478717,1.2142705,-8.525133,-1.5504841,0.6952698,2.0531757,-2.4241655,-1.1314601,2.7873216,17.169072086672404,-13.466889731534316,147.21745188154844,103.70863729150335,59.81735946716339,-715.08405195614
1733312837328244,-1.5081882,1.2228602,-8.490196,-1.5919627,0.6795322,2.0983853,-2.5924144,-0.98360324,2.8256028,18.621246595649126,-12.290969783089004,135.81217697663072,90.76090681104506,73.49499677783199,-712.8296815573576
1733312837336244,-1.5231105,1.2271012,-8.472491,-1.6132818,0.6735532,2.1210382,-2.6648936,-0.7473677,2.8316078,19.236316617571074,-11.600536138252425,130.13297270240088,76.88375274024385,86.30420560457259,-709.9005342787316
1733312837344244,-1.5381616,1.2313192,-8.454628,-1.6348386,0.6689005,2.143659,-2.6945918,-0.5815923,2.8276143,19.775981931507616,-10.845748587431055,124.46910005522746,67.4581642420677,94.34844385267118,-707.9840808966763
1733312837352244,-1.5533439,1.2355242,-8.436606,-1.6564549,0.6655872,2.1662674,-2.7020423,-0.41416284,2.8260348,20.236899167973014,-10.034036343998327,118.82073804466614,57.61465455817483,101.46403042909101,-706.0452513201644
1733312837368244,-1.5841032,1.2439348,-8.400085,-1.699363,0.6629078,2.2112396,-2.6817544,-0.16746296,2.8107612,20.896929873105698,-8.28482546758773,107.5619808363,41.25191907079266,109.32567977566225,-703.6723255228842
1733312837376244,-1.5996915,1.2481545,-8.381626,-1.7204499,0.66350347,2.2335896,-2.6358662,0.0744611,2.7937589,21.08355446534168,-7.370559979099116,101.94653075452884,23.32807402949797,114.28318606107689,-701.9312602213937
1733312837384244,-1.615408,1.2524003,-8.363008,-1.7410839,0.6653638,2.2558403,-2.5792418,0.23254006,2.7813313,21.170595574997765,-6.440832189623547,96.33958449855709,10.880138707010559,116.21597368444596,-700.8682819964697
1733312837392244,-1.6312488,1.2566813,-8.34423,-1.7611163,0.6684546,2.277977,-2.5040507,0.38634983,2.7670858,21.15885015514774,-5.49915551209076,90.73954770278613,-1.4681774812534594,117.70958469159842,-700.0045994713687
1733312837408244,-1.6632855,1.2653849,-8.306195,-1.798954,0.6780455,2.3217974,-2.3648589,0.5994327,2.7387736,20.849955718263715,-3.5992810398282367,79.55644988921463,-19.305902305251575,118.74215451640772,-698.9436133482185
1733312837416244,-1.6794696,1.2698233,-8.286941,-1.816565,0.6843527,2.3434086,-2.2013783,0.788398,2.7014015,20.558479660112752,-2.6612890403070373,73.9671268338529,-36.434507268869986,117.24899994014993,-698.6653819202163
1733312837424244,-1.695755,1.2743286,-8.2675295,-1.8331466,0.69151145,2.3648758,-2.072692,0.8948445,2.6834009,20.17809751526296,-1.749963330599522,68.37340754885565,-47.5477681062245,113.91571371343943,-699.2149106246559
1733312837432244,-1.712134,1.2789065,-8.248003,-1.8486527,0.69942236,2.3861213,-1.9382684,0.98886335,2.6556847,19.710593945440554,-0.8774890682009632,62.77153247043735,-58.43794622780033,109.05928279981983,-700.2343848022888
1733312837440244,-1.7286721,1.2835087,-8.228319,-1.8630856,0.7077695,2.4071763,-1.8041133,1.0433942,2.6318727,19.157198417460155,-0.05165843523895736,57.159731159961666,-69.17444099755002,103.22882912025072,-701.4751638094602
1733312837456244,-1.7642864,1.2912886,-8.18808,-1.8899386,0.7246125,2.4487493,-1.6783103,1.052685,2.5983152,17.816951934895588,1.4468074553845076,45.93465892650268,-83.76540516028535,93.65411816396656,-701.5670145911865
1733312837464244,-1.782154,1.2953254,-8.16774,-1.9014276,0.73349863,2.4692204,-1.4361291,1.1107697,2.5588868,17.04137557118333,2.1135810529392254,40.31324521673314,-96.94704546403254,83.3466996943397,-702.676713721193
1733312837472244,-1.8000498,1.2994608,-8.147253,-1.911592,0.74251956,2.4895,-1.2705474,1.1276156,2.5349555,16.206352808812373,2.7153394647090097,34.68134407077112,-104.37784529636936,75.21980147122305,-703.9876432452525
1733312837488244,-1.8358893,1.3080251,-8.1058445,-1.9280585,0.7604573,2.5294547,-1.0291561,1.1211075,2.4971664,14.393838830940718,3.6807861970453284,23.38169251436945,-113.28212361697852,60.340420771019936,-706.228222275104
1733312837496244,-1.8538151,1.3124499,-8.0849695,-1.9344015,0.76910555,2.5491388,-0.7928758,1.0810345,2.4605095,13.429271041962041,4.030216462600154,17.714274569051312,-120.57097362233456,43.67878319435313,-708.4272431647671
1733312837504244,-1.8717331,1.3169658,-8.063951,-1.9395368,0.7774055,2.5686395,-0.64191216,1.0374933,2.4375916,12.433215306240387,4.288304893184081,12.038304119160061,-124.5069669652067,32.261053822990846,-709.4963062364064
1733312837520244,-1.907528,1.3262717,-8.021486,-1.9463301,0.7924651,2.6073256,-0.42457876,0.94122434,2.4178772,10.380797538125849,4.534713601715147,0.6712649248511844,-128.2761105071586,15.40054428319164,-710.4399496443048
1733312837528244,-1.9253818,1.3310405,-8.000042,-1.9481654,0.7989945,2.6265194,-0.22941826,0.8161738,2.399236,9.349233664100545,4.521681048305791,-5.015324487814837,-128.9454842531631,-1.629069176169444,-710.8236765832527
1733312837536244,-1.9431974,1.3358778,-7.978456,-1.9490603,0.8047271,2.6456032,-0.11186301,0.71657443,2.3854673,8.331878623245222,4.4135507511503,-10.701685721830662,-127.1693801069152,-13.51628714443638,-710.795154251978
1733312837544244,-1.9609687,1.340776,-7.9567304,-1.9491115,0.8096015,2.6646314,-0.0063925977,0.60930103,2.3785233,7.339217459422264,4.207208412731638,-16.386022489614813,-124.0826454778698,-25.792792302332757,-710.542095973019
1733312837552244,-1.9786905,1.345727,-7.9349065,-1.9484092,0.81355315,2.6835759,0.08778273,0.49395856,2.3680627,6.377618561659985,3.9021643011624283,-22.066743403550984,-120.19986222028493,-38.130513946151225,-710.0901142420212
1733312837568244,-2.014437,1.3558707,-7.8892474,-1.945285,0.8186516,2.721953,0.1952648,0.31865385,2.3985653,4.570262937117153,3.011362650195286,-33.40949554111851,-112.95972653392697,-55.67510318544637,-708.9220085979703
1733312837576244,-2.0324435,1.3610449,-7.8654485,-1.9430468,0.81965953,2.7413895,0.2797693,0.12598932,2.4295747,3.7414884839354863,2.4389915549517442,-39.07129625211229,-103.59680664770842,-71.54638690544276,-707.7250888742224
1733312837584244,-2.0503743,1.366215,-7.8415465,-1.9404637,0.8195227,2.7608457,0.32289323,-0.017106533,2.4320185,2.9781409943666977,1.7917050501832104,-44.724522188178106,-95.41843619609853,-80.91081309606672,-706.6532420082274
1733312837592244,-2.0682304,1.3713919,-7.8175387,-1.9376594,0.81824833,2.7804003,0.3505349,-0.1592934,2.4443269,2.2909990183878413,1.0746382053741954,-50.36859258690426,-85.89274699735705,-89.63335560112687,-705.5087998407698
1733312837608244,-2.103718,1.3817276,-7.769194,-1.9317535,0.8123505,2.8197289,0.36911663,-0.36861372,2.458036,1.171924835099302,-0.5583269618462761,-61.63895016540163,-69.94213645553373,-102.06032295127946,-704.3973486560855
1733312837616244,-2.121351,1.3868679,-7.744909,-1.9288528,0.80770993,2.8395526,0.36258993,-0.5800724,2.4779737,0.7453144591560781,-1.4652619684995543,-67.269767693243,-53.32629699290298,-113.36687583165978,-703.8521909801701
1733312837624244,-2.1389132,1.3919774,-7.720508,-1.9261596,0.8019797,2.859534,0.336647,-0.7162764,2.497673,0.4107741297702993,-2.4205669897631465,-72.90124997422132,-41.81754117322234,-119.413127657949,-703.9352851222898
1733312837632244,-2.1564066,1.3970473,-7.6959887,-1.923732,0.7951666,2.8796868,0.30344725,-0.85163856,2.5191007,0.17346838979080104,-3.4112588667435935,-78.53663519626754,-29.66321749743728,-123.83648462255589,-704.4231527557785
1733312837648244,-2.1912038,1.4070328,-7.646585,-1.9201287,0.7784522,2.9205854,0.22520868,-1.0446496,2.55616,0.013591142976748887,-5.447877136237127,-89.8344977830063,-9.99232792587826,-127.28864184334584,-706.1164116711723
1733312837656244,-2.2085135,1.4119313,-7.6216955,-1.9191568,0.76868504,2.9413188,0.12148916,-1.2208968,2.5916693,0.09853316794316329,-6.477295232254216,-95.50508182553281,10.6177531208018,-128.67726200213602,-708.823005315815
1733312837664244,-2.2257738,1.4167577,-7.596678,-1.9188286,0.75805086,2.9622734,0.041022893,-1.3292729,2.6193259,0.29477297925400087,-7.5075329099707,-101.19663658670689,24.529976413854694,-128.77970971456057,-711.4443451467595
1733312837672244,-2.2429907,1.4215047,-7.5715814,-1.9192196,0.7465719,2.9834354,-0.048875805,-1.43487,2.645254,0.6011718302416248,-8.532323672125514,-106.9127498549324,38.29985637345298,-128.0988452693517,-714.5141585281876
1733312837688244,-2.2773232,1.4307362,-7.52098,-1.9224151,0.7215101,3.0265818,-0.19972025,-1.5663615,2.6966481,1.5362110560303954,-10.51592867240572,-118.43427516628154,58.439951611798165,-123.97531251751282,-720.095331959321
1733312837696244,-2.2940814,1.4352332,-7.495552,-1.9252632,0.70805454,3.0485835,-0.3560036,-1.6819462,2.7502177,2.1604632814741285,-11.441510585122687,-124.246178105212,78.0315281804666,-115.69773908962121,-726.4878673663078
1733312837704244,-2.3108358,1.4396281,-7.4699764,-1.929096,0.6941429,3.0708513,-0.4791021,-1.738958,2.783477,2.8842527603587946,-12.304382111217526,-130.0945115881912,90.47368486058329,-107.85894076185481,-731.0416853724005
1733312837712244,-2.3275948,1.4439174,-7.444251,-1.9339471,0.67986244,3.093382,-0.60638785,-1.7850547,2.8163192,3.7036595521162017,-13.09748616927837,-135.98108086872676,102.42584896967591,-99.1380072576055,-735.8211600669462
