timestamp,x,y,z,vx,vy,vz,ax,ay,az,roll,pitch,yaw
1729571875284772,-0.2569524,0.12668286,-2.7720802,-0.019314814,0.019570524,0.058764074,0.0,0.0,0.0,-0.324743413045646,-0.14240804335465515,89.34095554165866
1729571875300909,-0.25836998,0.1268706,-2.7713346,-0.01806365,0.019315295,0.058813907,0.077533916,-0.015816381,0.0030881334,-0.33159525110733973,-0.13764726722214904,89.34070303708691
1729571875309122,-0.25904882,0.12696755,-2.7709568,-0.01742819,0.019150244,0.058796886,0.077372454,-0.02009629,-0.002072428,-0.33558643908456287,-0.1357816464320819,89.34045037544547
1729571875317272,-0.2597081,0.12706624,-2.770576,-0.01678092,0.019003939,0.058763497,0.07941953,-0.017951557,-0.0040969052,-0.339880338288161,-0.13403890282590716,89.34017714594353
1729571875325491,-0.26037827,0.12716773,-2.7701921,-0.016165633,0.018851075,0.058691707,0.07486161,-0.018598802,-0.008734648,-0.3443529066509095,-0.13242227805606996,89.33983911247223
1729571875341652,-0.2616611,0.12737519,-2.7694175,-0.014915639,0.018540518,0.05851116,0.07734633,-0.019216444,-0.011171722,-0.35343088158540775,-0.12956279587831823,89.3386335825116
1729571875349886,-0.2622743,0.12748091,-2.76905,-0.014281472,0.01839389,0.058389414,0.07701802,-0.017807784,-0.014785793,-0.3576965184490934,-0.12844972568621374,89.33805297487403
1729571875358054,-0.26286906,0.12758788,-2.7686796,-0.013647484,0.018243376,0.05826147,0.07761858,-0.018427143,-0.01566419,-0.3617990069513505,-0.12756394665780102,89.33739382512192
1729571875366291,-0.26344562,0.12769601,-2.7683072,-0.012991108,0.01809701,0.058089986,0.079686254,-0.017769413,-0.02081857,-0.3655718644049194,-0.1268733354570794,89.33674492000972
1729571875382446,-0.26454544,0.12791537,-2.7675567,-0.011700113,0.017797662,0.057743546,0.079913005,-0.018529715,-0.021444803,-0.37258913435295954,-0.12638245443228743,89.33553581732046
1729571875390683,-0.26506916,0.12802638,-2.7671785,-0.01103526,0.017665014,0.05755291,0.08071549,-0.016103955,-0.023143655,-0.37589005486601346,-0.12627407827663992,89.33497240290416
1729571875398861,-0.26594612,0.12887663,-2.7677894,-0.010503922,0.017796896,0.057200108,0.06497165,0.016126525,-0.04314057,-0.37908097398815327,-0.12613854138148803,89.33448745139523
1729571875407114,-0.26679766,0.1297104,-2.7683728,-0.009969842,0.017891455,0.056839194,0.06471343,0.011457536,-0.043731198,-0.3822969988242778,-0.12613962194137768,89.33415267490204
1729571875423276,-0.2684266,0.1313299,-2.7694938,-0.008877189,0.018063156,0.05613717,0.067606285,0.010623715,-0.043436673,-0.3886841157266888,-0.12622089071740508,89.33356865239172
1729571875431518,-0.2692049,0.13211653,-2.7700155,-0.00831037,0.018138073,0.055829246,0.068771996,0.009089718,-0.03736048,-0.39196692009218426,-0.12598833021701636,89.33322037524123
1729571875439686,-0.2699597,0.13288826,-2.770512,-0.0077299075,0.018218014,0.05555526,0.071065456,0.009787097,-0.033543576,-0.3952951569063548,-0.12552002090385078,89.33292316219732
1729571875448017,-0.27069137,0.13364543,-2.770984,-0.00713589,0.018272338,0.055296846,0.07130207,0.0065207114,-0.031018598,-0.3984593986742481,-0.1246954603588577,89.33272505990081
1729571875464178,-0.27208677,0.13511755,-2.7718568,-0.005893535,0.018385215,0.05484505,0.076873645,0.006984487,-0.027955927,-0.4042348078852897,-0.12177622808669357,89.33222656836222
1729571875472417,-0.27275118,0.13583322,-2.772276,-0.005253697,0.018430984,0.05467448,0.07765969,0.0055551543,-0.020702738,-0.40704788856778,-0.11959616560546173,89.33198077736117
1729571875480567,-0.27343494,0.13653779,-2.7726722,-0.004659863,0.018469904,0.05455014,0.07286302,0.0047754566,-0.01525632,-0.4098120137833368,-0.11670022594114653,89.33168030871245
1729571875488800,-0.2740971,0.13722946,-2.7730455,-0.0040675327,0.018491935,0.05447441,0.07194589,0.002675983,-0.009198522,-0.41229848395852614,-0.11330762946123833,89.3307377253486
1729571875504973,-0.27535832,0.13857535,-2.7737253,-0.0028594674,0.018548736,0.0544648,0.07469643,0.0035121106,-0.00059427746,-0.41699912863199706,-0.10523104947561442,89.32872283414014
1729571875513231,-0.275958,0.13923025,-2.7740326,-0.0022246996,0.01856111,0.05448366,0.076867014,0.0014983715,0.0022839846,-0.41918777250902745,-0.10063255049398881,89.32775293236374
1729571875521395,-0.27653742,0.13987345,-2.7743185,-0.0015843671,0.018558985,0.054536816,0.07843367,-0.00026032314,0.0065110447,-0.42130360666809347,-0.09578285559367833,89.32681717937871
1729571875529733,-0.27668893,0.14040989,-2.774805,-0.00076992525,0.018474992,0.05456258,0.097678326,-0.01007343,0.0030899628,-0.4233787002329491,-0.09066552968585898,89.32595671421454
1729571875545896,-0.2769493,0.14145799,-2.7757332,0.00085913093,0.01829048,0.054632083,0.10078922,-0.011415687,0.004300114,-0.42769637953182754,-0.07996746721821742,89.32475805765081
1729571875554149,-0.2770583,0.1419699,-2.776159,0.0016962219,0.018186014,0.054731324,0.10142869,-0.012657998,0.012024929,-0.4297578112799112,-0.07450308413176343,89.3239248317916
1729571875562314,-0.27715713,0.14247265,-2.77656,0.0025527626,0.018091569,0.054862157,0.10490395,-0.0115671065,0.016023539,-0.4315106384545285,-0.06896327610271197,89.323149618468
1729571875570566,-0.2772456,0.14296643,-2.7769365,0.0034094416,0.017988801,0.05502464,0.1038147,-0.012453673,0.019690046,-0.43282023657056523,-0.06323589186566048,89.32241196873497
1729571875586742,-0.27739206,0.1439271,-2.7776182,0.005116997,0.01772378,0.055381216,0.10556103,-0.016383585,0.022043604,-0.4338765658749578,-0.051748655137716315,89.32098451813657
1729571875595116,-0.27745005,0.14439406,-2.7779405,0.0059794635,0.01757171,0.05560737,0.10299339,-0.01815979,0.027006797,-0.4338760072396016,-0.04613733251994032,89.32020247573041
1729571875603308,-0.2774979,0.14485219,-2.7782395,0.0068453187,0.017412342,0.055870656,0.105695225,-0.019454092,0.032139268,-0.433622764643426,-0.04042515830756087,89.3194751117129
1729571875611586,-0.27753565,0.1453016,-2.7785156,0.007696625,0.017248843,0.056167834,0.10283959,-0.019751059,0.035899684,-0.4331589669625127,-0.03464453585039767,89.31861786166661
1729571875627775,-0.27757975,0.146157,-2.7790003,0.009422592,0.01686462,0.05676548,0.10661357,-0.023733567,0.03691694,-0.4308042789617634,-0.02400966310001526,89.3171698014549
1729571875636049,-0.27758607,0.14656319,-2.7792099,0.010290919,0.01665205,0.057071105,0.10494646,-0.025691401,0.036937732,-0.4289036240137575,-0.019184761097222496,89.31720399067382
1729571875644227,-0.27758247,0.1469612,-2.7793984,0.0111548295,0.016445793,0.0573776,0.10563837,-0.025220871,0.037477933,-0.4267146952403889,-0.014672860663366467,89.31732017702542
1729571875652488,-0.2773608,0.14670493,-2.7802484,0.012031174,0.015930392,0.057514418,0.106082164,-0.06238971,0.016562007,-0.42423642661814664,-0.01024693799608303,89.31748404923658
1729571875668662,-0.2769056,0.14620914,-2.7818632,0.013737682,0.014872866,0.057777278,0.10550933,-0.06538433,0.016252022,-0.41846511992306984,-0.0011043028506419164,89.31440686072031
1729571875676927,-0.27667198,0.14596887,-2.7826169,0.014582411,0.014355049,0.057917934,0.10220558,-0.06265181,0.017018244,-0.4151869936818836,0.0030378066760657655,89.31301343858931
1729571875685115,-0.2764342,0.14573334,-2.783336,0.015427764,0.013834054,0.058099907,0.103242815,-0.063629076,0.02222435,-0.41138696229224847,0.006868208794146182,89.31154826377566
1729571875693395,-0.27622607,0.14550103,-2.7840207,0.01623651,0.013298951,0.058307648,0.097674705,-0.06462592,0.02508947,-0.40708756837116283,0.01000766792798318,89.31007276220575
1729571875709584,-0.27579603,0.14504822,-2.78529,0.017800895,0.012214319,0.058866084,0.096632615,-0.0669981,0.034494776,-0.3965398343381373,0.013998472843207248,89.30672230386816
1729571875717858,-0.27557427,0.14482705,-2.7858896,0.018559031,0.011671603,0.05921375,0.09162868,-0.06559295,0.042019147,-0.3904462072398625,0.015028937646668029,89.30499072976383
1729571875726048,-0.27534813,0.14460911,-2.7864568,0.01931617,0.011136906,0.05958232,0.09244678,-0.0652865,0.045002323,-0.38363084110007556,0.01534734186705437,89.30332403768924
1729571875742423,-0.2748825,0.14418186,-2.7874968,0.020811487,0.010063374,0.060412284,0.09131705,-0.06555919,0.05068488,-0.36800719358526607,0.013816565690343813,89.30022640257972
1729571875750624,-0.27464303,0.14397222,-2.7879703,0.021549664,0.009548155,0.060860243,0.09001066,-0.06282401,0.05462245,-0.3595730399714145,0.012023013997522378,89.29869963546018
1729571875758919,-0.27439928,0.14376506,-2.7884138,0.02225823,0.0090400325,0.061337795,0.08542075,-0.06125644,0.05757112,-0.35093121031827124,0.009673842427374527,89.29727885352084
1729571875767144,-0.27413487,0.1435544,-2.7888277,0.022985615,0.008525393,0.06182245,0.088435896,-0.062570155,0.058924805,-0.34229487097334454,0.006919115048172399,89.29592986710024
1729571875775466,-0.27386636,0.1433459,-2.7892127,0.023701979,0.008021726,0.062306058,0.08608075,-0.060522318,0.058111757,-0.3337964669855866,0.0037513880228172204,89.29487451478133
1729571875791672,-0.27317432,0.14268768,-2.7902372,0.025309352,0.006975569,0.063154966,0.09918384,-0.06455371,0.052382328,-0.31675002828056614,-0.003997248153073509,89.29365175133093
1729571875799978,-0.27282307,0.14236586,-2.7907035,0.02608203,0.0064503322,0.06358196,0.09302641,-0.063235804,0.051407747,-0.3084232958444828,-0.008557906896729072,89.29354256082472
1729571875808185,-0.2724684,0.14204861,-2.79114,0.026837895,0.005955045,0.06398496,0.092100054,-0.060349353,0.049104657,-0.30009407324572096,-0.013429339310182899,89.29336149036627
1729571875816591,-0.2721105,0.14173597,-2.791548,0.027564963,0.005472528,0.06438021,0.086494006,-0.057401534,0.047020376,-0.2917668334938351,-0.018404225179564197,89.29323851419639
1729571875832792,-0.27138513,0.14112413,-2.7922792,0.028991463,0.0045364285,0.06526792,0.088050075,-0.05778034,0.054793335,-0.27466471281821175,-0.02937547096840034,89.29299943364111
1729571875841089,-0.27101767,0.14082462,-2.7926185,0.029689502,0.0040805684,0.065719195,0.08413153,-0.054942757,0.054390047,-0.2659651577707811,-0.035381262603397,89.29298569002246
1729571875849286,-0.27063212,0.14052959,-2.7929308,0.030393347,0.0036522483,0.06617801,0.08586619,-0.05225328,0.05597343,-0.2572609061591349,-0.041391343506812235,89.29298569002246
1729571875857575,-0.27024367,0.14023875,-2.7932165,0.031056654,0.0032258132,0.06663199,0.08002251,-0.05144591,0.054768823,-0.24836561210467473,-0.04731608749252376,89.29321102701171
1729571875873769,-0.26945862,0.13966918,-2.7937105,0.032327615,0.0024117879,0.067528605,0.07848345,-0.05026709,0.05536728,-0.23002422082899918,-0.05911901967618246,89.29375052898257
1729571875882057,-0.26906216,0.1393903,-2.7939203,0.032952663,0.002022215,0.06800692,0.075416006,-0.047004458,0.057711437,-0.22095558120305064,-0.06507131292263021,89.29412599273402
1729571875890252,-0.268663,0.1391153,-2.7941058,0.033566393,0.0016495044,0.068465546,0.07489084,-0.045480236,0.055964362,-0.21185246825236476,-0.0711424682626507,89.2944743482697
1729571875898542,-0.2682612,0.13884413,-2.7942677,0.03415882,0.0012860764,0.068914235,0.07146266,-0.043839328,0.054124106,-0.2026976602388338,-0.0774631199665361,89.29479521697887
1729571875914734,-0.26680326,0.13797967,-2.795803,0.0355194,0.0006235039,0.06940543,0.08402793,-0.040919743,0.030335624,-0.18441995342792633,-0.09009927695065827,89.29704584849726
1729571875923020,-0.2660812,0.13755828,-2.7965145,0.036173597,0.00032229675,0.06966783,0.07895223,-0.03635133,0.031668115,-0.17528499751886203,-0.09643135762128893,89.29919057866307
1729571875931211,-0.26536408,0.13714541,-2.7971897,0.03679951,2.396058e-05,0.069942325,0.076414615,-0.03642244,0.033511695,-0.16610733388503227,-0.102736145349563,89.30137266461306
1729571875939498,-0.2646517,0.13674091,-2.7978292,0.037421744,-0.00025261595,0.07024346,0.07508571,-0.03337475,0.036338553,-0.1568459268564558,-0.10899872581079054,89.3035448401288
1729571875955691,-0.26324043,0.13595627,-2.7990043,0.038598742,-0.0007775582,0.070887186,0.07268561,-0.03241785,0.039753146,-0.13800941529020821,-0.12158015319059402,89.30800496592478
1729571875963983,-0.26254147,0.13557588,-2.799553,0.039163224,-0.0010305652,0.07126579,0.0680755,-0.030512188,0.04565862,-0.12808061549155852,-0.12790353596949586,89.3102658051845
1729571875972181,-0.2618468,0.13520306,-2.8000681,0.039703157,-0.0012938873,0.071703345,0.06586148,-0.03212028,0.053373717,-0.11805031796068423,-0.13433529649614762,89.3125777451876
1729571875980474,-0.2611564,0.13483767,-2.8005502,0.040220343,-0.0015289516,0.072188914,0.062364135,-0.028344905,0.0585517,-0.10779962165372638,-0.14099507032926692,89.31482826022035
1729571875988668,-0.26047778,0.13448042,-2.8009999,0.04072253,-0.0017492899,0.07268294,0.06128725,-0.026890205,0.06029114,-0.09744074318668386,-0.1475915865662414,89.31719150775011
1729571876005050,-0.25913218,0.13378735,-2.801804,0.041675247,-0.002166385,0.073736526,0.058156326,-0.025460577,0.06431367,-0.07636605390138636,-0.1607460049273747,89.32160034279278
1729571876013247,-0.25846523,0.13345134,-2.8021598,0.042108886,-0.0023474293,0.07430005,0.05290212,-0.022086643,0.06874767,-0.06550878937653325,-0.1672806817908033,89.32383029307393
1729571876021539,-0.25780222,0.13312224,-2.802485,0.042515527,-0.002521418,0.07486309,0.04904022,-0.020982726,0.06790164,-0.054608142813999345,-0.17393621037824988,89.32608760429828
1729571876037734,-0.2560114,0.13266669,-2.803244,0.04343807,-0.0026829331,0.075920716,0.056964625,-0.009973145,0.06530564,-0.03234527512978014,-0.18681793097404711,89.3304792558397
1729571876046022,-0.25489524,0.13253698,-2.8036623,0.043925636,-0.0026814982,0.07638271,0.058827944,0.00017313409,0.055742715,-0.021131317855795285,-0.1927634831853355,89.33429733210893
1729571876054212,-0.25379425,0.13241075,-2.804049,0.044381484,-0.002652661,0.07684668,0.0556592,0.0035210303,0.05665079,-0.009945642298320779,-0.1984181657164941,89.33803357262572
1729571876062212,-0.25270882,0.1322944,-2.804405,0.044800553,-0.002612379,0.07732889,0.05238363,0.0050352532,0.060276125,0.0010737672164349418,-0.20395700303428121,89.3417799809695
1729571876070212,-0.25163805,0.13218147,-2.804731,0.0452108,-0.0025901143,0.07780181,0.051280946,0.0027830827,0.059114765,0.012002176402571358,-0.20946972194603886,89.34538975703084
1729571876086212,-0.24953909,0.13196562,-2.8053062,0.04597353,-0.0025011213,0.0787485,0.047670443,0.005562062,0.059168316,0.033690497395534105,-0.21942471236036604,89.35245227009554
1729571876094212,-0.24851027,0.13186277,-2.8055565,0.046323456,-0.0024633799,0.07923214,0.043740958,0.0047176727,0.06045494,0.0446319557859409,-0.22375121598925646,89.35587078047674
1729571876102212,-0.2474949,0.1317632,-2.805779,0.046658248,-0.002412256,0.0797341,0.041848976,0.0063904733,0.062745064,0.05556533582239015,-0.22777612296704644,89.35924839088914
1729571876118212,-0.24550338,0.13157359,-2.8061419,0.047257654,-0.0023446328,0.08069511,0.037462916,0.0042264583,0.06006285,0.07749617307283106,-0.23496116703442133,89.36576802534331
1729571876126212,-0.24452679,0.1314834,-2.8062837,0.04752691,-0.0022982908,0.081179835,0.033657067,0.005792739,0.06059091,0.08823681026904626,-0.23810697620201776,89.36895436725084
1729571876134212,-0.24356271,0.13139635,-2.8063998,0.047762293,-0.0022434993,0.08167403,0.029422807,0.0068489457,0.061774623,0.09890646976310508,-0.24085884610443464,89.3719323632722
1729571876142212,-0.24259149,0.13130029,-2.806491,0.048000947,-0.0021975916,0.08213172,0.029831657,0.00573846,0.057211142,0.10936847718038309,-0.243177422527445,89.3749138876071
1729571876158212,-0.24068592,0.1311177,-2.8066273,0.048416622,-0.0020934946,0.08301456,0.025979707,0.0065060593,0.0551776,0.1302351176124561,-0.24639524472636992,89.38127303245915
1729571876166212,-0.24052338,0.13060522,-2.8061414,0.048224572,-0.0021255952,0.08349791,-0.024006234,-0.004012574,0.060418617,0.1409517597564717,-0.24734456979175015,89.3843570066752
1729571876174212,-0.24035612,0.13010666,-2.8056464,0.048028734,-0.002159503,0.083974585,-0.024479812,-0.004238478,0.059584152,0.15218988885844362,-0.24804579131220295,89.38579825357853
1729571876182212,-0.24018435,0.1296216,-2.8051426,0.04782922,-0.002190508,0.084427506,-0.02493942,-0.0038756113,0.056615096,0.1634827232147001,-0.24872684227734226,89.38724978188775
1729571876190212,-0.2400084,0.12914969,-2.8046303,0.047617573,-0.002223592,0.084871106,-0.026455613,-0.0041355086,0.05545001,0.17487516726060326,-0.24928081320309148,89.3885406261016
1729571876206212,-0.23964903,0.12823817,-2.8035977,0.047176085,-0.0023090679,0.085631564,-0.02759299,-0.0053422404,0.047528647,0.19723733001990842,-0.250467836663917,89.39082209252548
1729571876214212,-0.23946625,0.12779783,-2.803078,0.046916135,-0.0023460465,0.08594328,-0.032493845,-0.0046223286,0.038964674,0.20772762777389361,-0.2511795171783254,89.39218476016991
1729571876222212,-0.23928043,0.12736917,-2.8025508,0.046675164,-0.0023952692,0.08621726,-0.030121299,-0.0061528403,0.034247525,0.21761591940602393,-0.25233753890651206,89.3934586396775
1729571876238212,-0.23890081,0.1265453,-2.8014753,0.046112478,-0.0024672677,0.0866764,-0.035167903,-0.004499903,0.02869591,0.23547695779602545,-0.2556935960096241,89.39559646249805
1729571876246212,-0.23870765,0.12614958,-2.8009276,0.04582457,-0.002499277,0.0868426,-0.035988633,-0.0040011653,0.02077501,0.24357787738495926,-0.25762031565578636,89.39643998835683
1729571876254212,-0.23851246,0.12576427,-2.8003738,0.045547336,-0.0025249547,0.08698727,-0.034654047,-0.0032097157,0.018084422,0.25097785023496494,-0.25966437731327324,89.39715025985592
1729571876262212,-0.23831551,0.1253891,-2.7998145,0.04523518,-0.002534729,0.08706769,-0.039019622,-0.0012217788,0.010052695,0.25765886764206714,-0.2619159618246934,89.39786049573496
1729571876278212,-0.23792422,0.12466665,-2.798714,0.044633556,-0.0025504897,0.087110996,-0.03760145,-0.0009850482,0.0027064232,0.269195723643772,-0.2670503977947687,89.39888825001132
1729571876286212,-0.2372098,0.12462426,-2.797926,0.044522908,-0.0023057314,0.087103255,-0.013831071,0.030594788,-0.0009676441,0.2739353046849984,-0.26987204394766207,89.39940728569327
1729571876294212,-0.23650602,0.12458622,-2.79714,0.04442794,-0.0020668248,0.0870955,-0.011871102,0.029863322,-0.00096950674,0.27781608240789085,-0.27296959617299393,89.40394258440098
1729571876302212,-0.23581262,0.124552414,-2.7963552,0.044312015,-0.0018259176,0.08708214,-0.014490447,0.030113397,-0.0016698613,0.281115052305598,-0.27610042007418323,89.40844049860964
1729571876318212,-0.23445651,0.124497466,-2.7947915,0.04405814,-0.0013280266,0.086878575,-0.015867176,0.031118184,-0.012722797,0.28643974679781703,-0.28218691123383305,89.41690673307647
1729571876326212,-0.23379353,0.12447622,-2.794032,0.043907233,-0.0010817637,0.08668347,-0.018863473,0.030782873,-0.024388542,0.2885860300198738,-0.2851588003190026,89.42091607025067
1729571876334212,-0.23314023,0.12445894,-2.7932754,0.0437628,-0.0008661951,0.08643555,-0.018054154,0.026946064,-0.030989757,0.29020443439568,-0.28781783153921897,89.42482661665893
1729571876342212,-0.23249632,0.12444548,-2.7925215,0.043614402,-0.0006423192,0.08616759,-0.018549617,0.027984489,-0.033495016,0.29146031517565185,-0.2900626177623422,89.42865161837851
1729571876358212,-0.23119381,0.12445534,-2.7910228,0.04333868,-0.00014748827,0.08554461,-0.017232727,0.030926934,-0.03893627,0.2934363976911594,-0.2939351451885276,89.43521559853384
1729571876366212,-0.23055609,0.12446579,-2.7902782,0.043207202,8.759572e-05,0.08520979,-0.016434584,0.029385498,-0.0418527,0.29441254457647265,-0.29545960487910433,89.43791701128589
1729571876374212,-0.22992691,0.12447985,-2.7895372,0.043083426,0.00032969232,0.08483986,-0.015472061,0.030262074,-0.046241093,0.2957119875879625,-0.29675698462121375,89.44053311717859
1729571876382212,-0.22930612,0.124497496,-2.7887995,0.04294789,0.0005664249,0.084429674,-0.016942155,0.029591573,-0.05127303,0.297250345013217,-0.2974907862565739,89.44306033418455
1729571876398212,-0.22808914,0.12454314,-2.7873757,0.042623732,0.0010131211,0.083498135,-0.020259757,0.02791851,-0.05822116,0.30009203260799455,-0.2977377169345685,89.44775987613481
1729571876406212,-0.2274927,0.12457096,-2.7866693,0.042437345,0.0012212236,0.08301716,-0.02329843,0.026012814,-0.060121525,0.30131265302549515,-0.29721485357031563,89.44992510633847
1729571876414212,-0.22663595,0.124648616,-2.7870688,0.042387627,0.0014282787,0.08230543,-0.006214715,0.02588189,-0.088966444,0.30253263298510197,-0.296535934325376,89.45209726502291
1729571876422212,-0.22579218,0.12472338,-2.7874439,0.042321566,0.001627431,0.08157749,-0.008257572,0.024894033,-0.090993,0.3036629752243655,-0.2956415411275439,89.45450856998917
1729571876430212,-0.22496152,0.12480005,-2.7877955,0.042253956,0.0018179672,0.08085127,-0.008451287,0.023817016,-0.090776935,0.3046969209362448,-0.2945690271193457,89.45727838282744
1729571876446212,-0.22333783,0.12495848,-2.7884445,0.04212282,0.0021470427,0.07947827,-0.008196104,0.020567218,-0.085812524,0.3071694381957107,-0.2925493190081209,89.46260637493407
1729571876454212,-0.22254416,0.12503995,-2.7887423,0.04206365,0.0023151694,0.07886016,-0.0073960978,0.021015845,-0.07726345,0.3089760122708698,-0.2915558337425238,89.46503807095401
1729571876462212,-0.22176225,0.12512293,-2.7890184,0.041976746,0.0024793395,0.07827731,-0.010862946,0.020521255,-0.07285643,0.3112578353386408,-0.2902153118006426,89.4672410259853
1729571876478212,-0.22023304,0.12529285,-2.789507,0.041790295,0.0027861125,0.07723437,-0.011653173,0.019173311,-0.06518373,0.31690478261877597,-0.2871694089725286,89.47116532532706
1729571876486212,-0.21948509,0.12537967,-2.78972,0.041697495,0.0029324617,0.07678295,-0.011600087,0.018293649,-0.0564279,0.3200919937879946,-0.285501354561781,89.47287642517217
1729571876494212,-0.21873344,0.12547338,-2.7899132,0.041619256,0.003084252,0.07637093,-0.009779818,0.018973775,-0.051502135,0.32360198272933055,-0.2836993896903563,89.47438268781586
1729571876502212,-0.21799254,0.12556806,-2.7900863,0.04152364,0.0032250094,0.076037,-0.011952127,0.017594691,-0.041741874,0.327513075159535,-0.2818296826770867,89.47525708238209
1729571876518212,-0.21654217,0.12576011,-2.7904,0.041321862,0.0035045727,0.075460434,-0.012611038,0.017472701,-0.0360352,0.3364911930146239,-0.2782023820218995,89.47663015917117
1729571876526212,-0.2158323,0.12585725,-2.7905276,0.041195933,0.0036117968,0.07523257,-0.015741214,0.0134030115,-0.028482636,0.34150757884946553,-0.27653782407194055,89.47703663678494
1729571876534212,-0.2151324,0.12595493,-2.790636,0.041074682,0.00372921,0.07502465,-0.015156343,0.014676654,-0.025990417,0.3467690150611958,-0.2749567770514696,89.4773099919346
1729571876542212,-0.21456747,0.12557335,-2.7914383,0.040897302,0.0037029542,0.0746562,-0.02217246,-0.0032819805,-0.04605576,0.3522546113806113,-0.27317298337372126,89.4774193339555
1729571876550212,-0.21400946,0.1252038,-2.7922049,0.040700898,0.0036733232,0.07431847,-0.024550593,-0.0037038696,-0.04221685,0.3581321120163595,-0.27118121370535553,89.47670560090806
1729571876566212,-0.21292213,0.124520555,-2.793643,0.040259864,0.0036402075,0.0737533,-0.027564585,-0.0020697333,-0.035323203,0.37048716622080974,-0.26686333929455086,89.47442780322677
1729571876574212,-0.21238868,0.12419533,-2.7943158,0.04002078,0.0036164788,0.07354446,-0.029885674,-0.0029660875,-0.02610497,0.37697424400820634,-0.2646693041835234,89.47274421470362
1729571876582212,-0.21186203,0.12388052,-2.7949555,0.039774545,0.0035940271,0.0733798,-0.030779278,-0.002806453,-0.020582227,0.38362323684658095,-0.2626922369669822,89.47103318110338
1729571876598212,-0.21082929,0.12328052,-2.7961373,0.039217178,0.0035081883,0.07319628,-0.03483542,-0.005364927,-0.011470168,0.3965372830181514,-0.25994263034125087,89.46707840879422
1729571876606212,-0.21032315,0.122994594,-2.7966805,0.03894322,0.0034629984,0.07318002,-0.03424473,-0.005648733,-0.0020321459,0.4028441191793632,-0.2592925017159729,89.46483463889162
1729571876614212,-0.20982376,0.12271768,-2.797192,0.0386485,0.0034249006,0.0732245,-0.03683986,-0.0047622304,0.0055599953,0.40917499100449395,-0.2591572572501276,89.46252927180467
1729571876622212,-0.20933113,0.12244944,-2.797673,0.038351476,0.003384192,0.07329864,-0.037128106,-0.0050885715,0.009267591,0.41516094170457335,-0.2595896980329553,89.46011468931307
1729571876638212,-0.20847291,0.12192862,-2.7985656,0.037620876,0.0033188853,0.07355584,-0.04566251,-0.0040816665,0.016075093,0.42700280761423154,-0.26155601243580623,89.45579087635097
1729571876646212,-0.20805292,0.12168044,-2.7989671,0.03723747,0.003299054,0.07375324,-0.047925856,-0.0024789185,0.024674458,0.4329204592659417,-0.2628926090771808,89.45382703802824
1729571876654212,-0.2076391,0.121440135,-2.7993398,0.03684387,0.0032856034,0.07398832,-0.049199905,-0.0016813282,0.029385088,0.4386722965047454,-0.26456658344618783,89.45182215431248
1729571876662212,-0.20741215,0.12147238,-2.7999802,0.036376476,0.0034399773,0.0741566,-0.05842419,0.019296741,0.02103485,0.4441868707208764,-0.2665254813944325,89.44968408580174
1729571876678212,-0.20696425,0.12154453,-2.8011553,0.035430837,0.0037538067,0.07458892,-0.059102427,0.019614337,0.027019994,0.45447357614243855,-0.27137566283280756,89.4482870000615
1729571876686212,-0.2067435,0.12158452,-2.8017008,0.03494462,0.003924496,0.0748463,-0.060777176,0.021336162,0.03217254,0.4591873056978,-0.2740590237587884,89.44762774542363
1729571876694212,-0.20652503,0.12162707,-2.8022127,0.034469504,0.0040965695,0.075131215,-0.059389506,0.021509185,0.035614707,0.4635904028464765,-0.2769109008262051,89.44678408188994
1729571876702212,-0.20631567,0.12167015,-2.8026917,0.033991188,0.004264479,0.07543962,-0.05978951,0.020988692,0.038550235,0.46770007682765236,-0.27966774176815434,89.4458037530344
1729571876718212,-0.20590384,0.12176394,-2.8035533,0.033020407,0.0046056816,0.07614532,-0.0606738,0.021325162,0.044106502,0.4748574066296575,-0.28450138648804907,89.44425302346245
1729571876726212,-0.20570171,0.12181452,-2.803937,0.032511294,0.0047631203,0.07653043,-0.063639134,0.019679835,0.048138198,0.4781076431210089,-0.2866121012385588,89.4433785244681
1729571876734212,-0.20550223,0.12186744,-2.8042898,0.032008648,0.004915472,0.07694015,-0.062830746,0.019043975,0.051215287,0.48087241072981984,-0.2883905341330967,89.4425348593713
1729571876742212,-0.20530547,0.121922694,-2.8046126,0.03150386,0.005067141,0.07736681,-0.0630985,0.018958583,0.053332184,0.4833374291818591,-0.28968812650396736,89.44166045922852
1729571876758212,-0.20492026,0.12203999,-2.80519,0.030476773,0.005365078,0.078228176,-0.06419292,0.018621067,0.053835563,0.4871318056097114,-0.29099447031615716,89.4397409761489
1729571876766212,-0.20474991,0.12208924,-2.8054357,0.029943272,0.0054882253,0.078677066,-0.066687584,0.015393423,0.05611125,0.48841028231786654,-0.29131069081315986,89.43884280429
1729571876774212,-0.20458236,0.1221407,-2.8056529,0.02940939,0.0056114187,0.07915424,-0.06673531,0.015399185,0.05964655,0.48921119061610213,-0.2913964961739847,89.43892821209931
1729571876782212,-0.20441769,0.12219442,-2.8058426,0.02887471,0.0057463073,0.079630405,-0.066834964,0.01686107,0.059520822,0.48953748455067375,-0.29118523782720934,89.43905456615944
1729571876798212,-0.2040056,0.12242597,-2.807329,0.027845383,0.0059668114,0.0802477,-0.06433297,0.0137815075,0.03858097,0.48916990953463074,-0.28974090106214245,89.43892141559306
1729571876806212,-0.20380552,0.12254207,-2.808018,0.027334498,0.0060571376,0.08058599,-0.06386055,0.011290772,0.042285766,0.48850269139929936,-0.2883514201325242,89.43874728536147
1729571876814212,-0.20360939,0.12265825,-2.8086672,0.026836518,0.0061435285,0.08094729,-0.062247504,0.010798859,0.045162622,0.4873413345966024,-0.286569838914378,89.43850150765401
1729571876822212,-0.20341711,0.1227744,-2.8092778,0.026339285,0.006200647,0.0813312,-0.062154137,0.0071398094,0.047989186,0.4856644131187226,-0.28460616181484594,89.4382829828705
1729571876830212,-0.20322868,0.12289038,-2.8098505,0.025844336,0.0062662284,0.08173599,-0.061868686,0.008197675,0.05059875,0.483578675469341,-0.2825398708814128,89.43801330054225
1729571876846212,-0.20287402,0.12311675,-2.8108845,0.024842188,0.006376637,0.08262483,-0.06263424,0.006900547,0.055552457,0.478250198223198,-0.2783888270412144,89.43720067159036
1729571876854212,-0.20270763,0.12322686,-2.8113472,0.024335135,0.0064036655,0.08310384,-0.06338162,0.003378547,0.059876587,0.47491797864100477,-0.27639972457694767,89.4371871123493
1729571876862212,-0.20254493,0.12333671,-2.8117747,0.023833085,0.006465501,0.08358425,-0.06275624,0.007729453,0.060050745,0.47131452982273736,-0.27464821437060694,89.43722819261137
1729571876870212,-0.20238577,0.12344637,-2.8121753,0.023350108,0.0065109488,0.0840832,-0.06037205,0.005680951,0.062368806,0.46737569134800333,-0.27305262660267976,89.43715309684974
1729571876886212,-0.20207806,0.123664886,-2.8128755,0.022367181,0.0066028885,0.08511923,-0.061432943,0.005746231,0.064752065,0.4585560285475788,-0.270448480968961,89.43697220420809
1729571876894212,-0.20192957,0.123773545,-2.8131764,0.021883586,0.0066343243,0.08567218,-0.06044935,0.003929483,0.069118105,0.4538313363769115,-0.2693041714651699,89.43675367986471
1729571876902212,-0.20178443,0.12388183,-2.813445,0.021428674,0.0066788886,0.086214446,-0.056863993,0.005570531,0.06778352,0.4490464281720607,-0.2679669604743729,89.43648051609811
1729571876910212,-0.20187744,0.124017194,-2.8136752,0.020847872,0.0067169718,0.086714424,-0.07260032,0.004760397,0.06249733,0.44435506089395843,-0.26662561411866065,89.43610145483335
1729571876926212,-0.20205596,0.12428406,-2.8140552,0.019727701,0.0067828023,0.08773128,-0.070010655,0.0041144085,0.06355345,0.43503993580170186,-0.26389020076294134,89.43431204685093
1729571876934212,-0.20214292,0.12441567,-2.8142064,0.019181475,0.006800478,0.08820173,-0.06827828,0.0022094464,0.058806498,0.43040892114965207,-0.2629266536597391,89.43341036145776
1729571876942212,-0.20222841,0.124546066,-2.8143299,0.018669914,0.006831928,0.08866333,-0.06394507,0.003931287,0.057700086,0.425978246081237,-0.2622491504758468,89.43237217888472
1729571876950212,-0.20231245,0.12467528,-2.8144267,0.018145364,0.006853658,0.08909933,-0.065568835,0.002716202,0.054500062,0.4215363645818639,-0.26162594256236227,89.43123830983822
1729571876966212,-0.20247687,0.1249301,-2.8145423,0.01711885,0.006902863,0.08996856,-0.06415706,0.0030753142,0.054326836,0.41259825722556853,-0.26016090515826423,89.42879647698561
1729571876974212,-0.20255737,0.12505582,-2.8145623,0.016634192,0.0069320695,0.09039392,-0.0605823,0.0036508425,0.053170133,0.4080254602901486,-0.259153308506621,89.42745764244978
1729571876982212,-0.20263672,0.12518045,-2.814558,0.0161592,0.0069662905,0.090824366,-0.05937414,0.004277623,0.053805295,0.4034139247415368,-0.258147339457657,89.42604033211566
1729571876990212,-0.20271769,0.12529838,-2.8145387,0.01568849,0.006983523,0.091250084,-0.05883863,0.0021540327,0.053214837,0.3989225035890184,-0.25702200105875617,89.42467434920812
1729571877006212,-0.20287655,0.125531,-2.8144295,0.014779134,0.0070018875,0.092105344,-0.056834772,0.0011477969,0.05345372,0.38983083284848585,-0.2544807184834428,89.42222223934085
1729571877014212,-0.20295453,0.12564567,-2.8143406,0.014329535,0.007006907,0.09251735,-0.056199845,0.0006274203,0.051501203,0.3850477211513339,-0.25339913673322917,89.42092103841713
1729571877022212,-0.20303166,0.12575935,-2.81423,0.013887165,0.007040767,0.092905864,-0.055296227,0.004232512,0.048563812,0.3801903062880418,-0.2525879371395056,89.41954467407128
1729571877030212,-0.20310807,0.12587215,-2.8140981,0.01343626,0.007057872,0.09325018,-0.056363173,0.002138142,0.043039206,0.37529529574339815,-0.2520279896005264,89.41807621009517
1729571877046212,-0.20273134,0.1261902,-2.8140614,0.012590873,0.0072230967,0.09381159,-0.052836664,0.010326534,0.035088044,0.3655911058025389,-0.25082669183336176,89.41500244191869
1729571877054212,-0.20255335,0.12634718,-2.8140128,0.0122031355,0.0073008686,0.09406085,-0.04846719,0.009721494,0.031158326,0.36075265850545546,-0.25018694245338163,89.41337682164881
1729571877062365,-0.20238525,0.1264919,-2.813942,0.011813934,0.007353441,0.09429697,-0.047737222,0.0064482065,0.028960671,0.35592797333027787,-0.24960146160682253,89.41172032696795
1729571877078365,-0.20206793,0.12677751,-2.8137357,0.011040368,0.00743768,0.09479439,-0.048347864,0.0052649407,0.031088943,0.3463751917611823,-0.24803789383196986,89.40953120584037
1729571877086365,-0.2019185,0.12691832,-2.8136013,0.010677252,0.0074803997,0.09503352,-0.04538952,0.0053399703,0.029890796,0.34159280195058067,-0.24711130065175516,89.40842134880216
1729571877094365,-0.2017749,0.12705787,-2.8134468,0.010316337,0.0075226617,0.09526648,-0.045114312,0.005282752,0.029120592,0.33697915881563834,-0.2460313737108532,89.4071987637683
1729571877102365,-0.20163694,0.12719622,-2.8132725,0.009962889,0.007571363,0.09545122,-0.044181008,0.0060876478,0.023092141,0.3327877307560107,-0.2447644153600556,89.4058872844178
1729571877118365,-0.20137732,0.12746938,-2.8128872,0.009277117,0.007636511,0.09577326,-0.042860743,0.004071771,0.020127276,0.32539926917577483,-0.24139336650128265,89.40342504125941
1729571877126365,-0.20125534,0.12760407,-2.8126676,0.008939063,0.0076602837,0.09590201,-0.04225678,0.002971559,0.016094185,0.32190389733146985,-0.23950562966575933,89.40217503122862
1729571877134365,-0.20114477,0.12772956,-2.8124306,0.00859674,0.007669747,0.0960231,-0.042790428,0.0011828961,0.015135854,0.3185142869081652,-0.23749628266121176,89.40086024448661
1729571877142365,-0.20103905,0.12785394,-2.8121767,0.008264604,0.007691033,0.09611732,-0.04151696,0.0026607884,0.011777504,0.31514943675762563,-0.23543653619761193,89.40010209279298
1729571877158365,-0.20084174,0.1280993,-2.8116207,0.007590972,0.007687479,0.096304365,-0.042102005,-0.00022214952,0.011690426,0.308494089165869,-0.23118641574870633,89.39842535954219
1729571877166365,-0.20100603,0.12822902,-2.8115752,0.007185653,0.007722675,0.096309885,-0.050664876,0.0043995096,0.00069010997,0.3052549593911733,-0.22907595031265662,89.397636581642
1729571877174365,-0.20116858,0.12835798,-2.8115087,0.0067949225,0.0077612437,0.09628093,-0.04884129,0.0048211077,-0.0036191193,0.30238264037798096,-0.22718311913510644,89.39668726642272
1729571877182365,-0.20132945,0.12848613,-2.8114219,0.006416465,0.007780831,0.096263915,-0.047307167,0.0024483888,-0.0021271408,0.2998319525432963,-0.22540408110441504,89.3957549542676
1729571877198365,-0.20164649,0.1287397,-2.8111894,0.0056461156,0.007790646,0.09620315,-0.048146844,0.0006134505,-0.0037979332,0.2954202456853428,-0.22256152675050972,89.39379111699478
1729571877206365,-0.2017983,0.1288679,-2.8110447,0.005299677,0.007781567,0.096189,-0.04330481,-0.0011348748,-0.0017685815,0.29343949439873224,-0.22117078575496113,89.39284866899845
1729571877214365,-0.20194854,0.12899506,-2.810882,0.0049693086,0.00780023,0.09615287,-0.041296065,0.0023328466,-0.004515983,0.29118748521120563,-0.21966023555381267,89.39177289442249
1729571877222365,-0.20209731,0.1291213,-2.8107016,0.0046203225,0.007804014,0.096091986,-0.043623265,0.00047299542,-0.0076107676,0.28869741778922053,-0.2180268612724416,89.39066980061116
1729571877238365,-0.20239095,0.12937061,-2.8103087,0.003939829,0.007785736,0.09593133,-0.042530853,-0.0011423544,-0.010041053,0.28299962888231933,-0.21520797403093267,89.38821425118857
1729571877246365,-0.2025359,0.12949368,-2.8100877,0.0036264346,0.00778194,0.09584156,-0.039174277,-0.00047450882,-0.011221505,0.2797403438390133,-0.21415773169214308,89.38705314073006
1729571877254365,-0.20267953,0.12961574,-2.809851,0.0033079635,0.007773728,0.09574621,-0.039808888,-0.0010264921,-0.011918134,0.27631476100580304,-0.21331311689563515,89.38585097836764
1729571877262365,-0.20282191,0.12973672,-2.8095992,0.0030131123,0.0077594304,0.09563946,-0.03685639,-0.0017872079,-0.013343989,0.27294922560523877,-0.21239509044753896,89.3845907991418
1729571877270365,-0.20296311,0.12985665,-2.8093328,0.0026942317,0.007746872,0.09553651,-0.03986008,-0.0015698023,-0.012869014,0.269821262440195,-0.21126349912723208,89.38321443942706
1729571877286365,-0.20342532,0.13037731,-2.8082511,0.0020063054,0.007829654,0.095343776,-0.042995393,0.005173875,-0.012045725,0.26357984113993105,-0.20864006188266723,89.38047541676299
1729571877294365,-0.20375296,0.1307695,-2.8074503,0.001646291,0.007920743,0.09530407,-0.045001797,0.011386116,-0.0049630175,0.26045201313493443,-0.20737001185361859,89.37893517832235
1729571877302365,-0.20407535,0.13115461,-2.8066497,0.0013038389,0.008026237,0.09525404,-0.04280651,0.013186712,-0.0062538306,0.2572601683592939,-0.20615812563251823,89.37727541821201
1729571877310365,-0.20439261,0.13153288,-2.8058493,0.00096022,0.008112786,0.095187314,-0.042952362,0.010818708,-0.008340925,0.25400043397468347,-0.20500104145025272,89.37560192446766
1729571877326365,-0.2050126,0.13226943,-2.8042495,0.00027719396,0.008282596,0.09498968,-0.042689126,0.010613118,-0.01235213,0.24699847996343235,-0.20193670844938774,89.372371118987
1729571877334365,-0.2053155,0.13262804,-2.8034508,-3.5619523e-05,0.008368078,0.09485012,-0.039101686,0.010685179,-0.017444603,0.24315405998650721,-0.20013819651193834,89.37070107803287
1729571877342365,-0.20561367,0.13298036,-2.8026528,-0.00032548112,0.008426058,0.09465745,-0.036232695,0.007247552,-0.024084,0.23924122018440683,-0.1983564268396066,89.3689798889515
1729571877358365,-0.20620075,0.13365607,-2.801089,-0.0009315015,0.008485477,0.094168454,-0.03787627,0.0037137067,-0.03056228,0.23126071527075148,-0.19440695347417222,89.3660497108441
1729571877366365,-0.20648775,0.1339848,-2.800309,-0.0012112574,0.008508947,0.09388031,-0.034969486,0.0029336659,-0.03601797,0.22701588036685005,-0.19204324101248307,89.36462550654319
1729571877374365,-0.20677038,0.13430758,-2.7995303,-0.0014773069,0.008523698,0.093562216,-0.033256188,0.0018439022,-0.039761882,0.22248520642770434,-0.1894977007759878,89.36324243282934
1729571877382365,-0.20704874,0.13462456,-2.7987535,-0.0017352022,0.008538358,0.09320911,-0.0322369,0.0018324935,-0.044138167,0.2177189329778966,-0.18676910553417794,89.3618866408651
1729571877390365,-0.2073229,0.13493587,-2.797979,-0.0019859567,0.008552577,0.09282815,-0.031344313,0.001777429,-0.047620382,0.212757507424801,-0.18422892886052186,89.36054450889071
1729571877406365,-0.20785908,0.13554204,-2.796451,-0.002478517,0.0085561285,0.09196843,-0.030785011,0.0002219458,-0.053732187,0.20255470243420715,-0.17894077507857772,89.35784317160444
1729571877414365,-0.20775384,0.13591449,-2.795536,-0.0024891356,0.008560569,0.0915671,-0.0013273383,0.00055506825,-0.050166618,0.19734512704917667,-0.17637638690312413,89.35632350459458
1729571877422365,-0.20764491,0.13627893,-2.794627,-0.0024713979,0.008548287,0.09114645,0.002217217,-0.0015352851,-0.052581538,0.19195779521354675,-0.17379941920203806,89.35577715984849
1729571877438365,-0.20743579,0.13698646,-2.7928278,-0.0024341345,0.008531266,0.09021433,0.0023289612,-0.0010638032,-0.058257483,0.18129008020682782,-0.16883306240097515,89.35430530243914
1729571877446365,-0.20733528,0.13732982,-2.7919378,-0.00241182,0.008501184,0.08969731,0.0027893109,-0.0037602147,-0.06462727,0.17615733490392527,-0.16616172664892545,89.35365301956706
1729571877454365,-0.20723727,0.13766624,-2.7910547,-0.0023856405,0.008455859,0.0891605,0.0032724345,-0.0056657004,-0.06710086,0.17127525356308915,-0.1631674500642559,89.35291544164929
1729571877462365,-0.20714164,0.1379959,-2.7901783,-0.0023600105,0.008424355,0.088610575,0.0032037494,-0.003937981,-0.06874092,0.16678333488971597,-0.1598648136939594,89.35225978276945
1729571877470365,-0.20704825,0.13831894,-2.7893248,-0.0023322618,0.008379036,0.08800811,0.0034685943,-0.0056648855,-0.075307675,0.16260270803292304,-0.1564905940035509,89.35160761624098
1729571877486365,-0.20686784,0.13894518,-2.787638,-0.0022865713,0.008247651,0.08671511,0.0028556532,-0.008211529,-0.080812715,0.15536844831357807,-0.1500519037100951,89.35038842398363
1729571877494365,-0.20677872,0.13924967,-2.7868052,-0.0022520123,0.008195132,0.08606177,0.0043198816,-0.0065648924,-0.08166767,0.15224710930021373,-0.1470846434474105,89.34982170781174
1729571877502365,-0.20669137,0.1395479,-2.785979,-0.0022158932,0.008128702,0.08540432,0.004514877,-0.0083037885,-0.08218083,0.14943960376641274,-0.14444476678991805,89.34928211718301
1729571877518365,-0.20652153,0.14012592,-2.7843473,-0.002144227,0.007992417,0.08403764,0.0044791377,-0.008517818,-0.08541764,0.14536637139037487,-0.13957047802943334,89.34805272005153
1729571877526365,-0.20643882,0.14040583,-2.783559,-0.0020962944,0.007904477,0.08331371,0.0059915762,-0.010992399,-0.09049102,0.14390099019150082,-0.1369225180377301,89.34750633875687
1729571877534365,-0.2063574,0.14067979,-2.7827778,-0.0020555155,0.007818437,0.08257392,0.005097361,-0.010755029,-0.092473805,0.1429027300669094,-0.13413858117207397,89.3469223938794
1729571877542365,-0.20613274,0.14106089,-2.7823431,-0.0019424132,0.0078934245,0.08176375,0.014137796,0.0093734125,-0.10127108,0.14235356341492963,-0.13098718748692803,89.3464306119749
1729571877558365,-0.20569497,0.14180392,-2.7814684,-0.0016848756,0.008009541,0.080145225,0.016096098,0.0072572725,-0.101157926,0.1412389069358095,-0.12464454064444581,89.3460004928701
1729571877566365,-0.20547871,0.14216504,-2.781029,-0.0015683239,0.008048745,0.079347715,0.014568955,0.004900503,-0.09968876,0.14067066909683926,-0.12173754138099568,89.34589467057732
1729571877574365,-0.20526606,0.14251997,-2.780588,-0.0014497829,0.008073084,0.07856328,0.014817633,0.0030423978,-0.09805429,0.14011160450284108,-0.1190058198699835,89.34560456183524
1729571877582365,-0.20505689,0.14286883,-2.7801456,-0.001334047,0.008098184,0.07778302,0.01446699,0.003137509,-0.09753275,0.13980717275996354,-0.11629012025856557,89.34532108791406
1729571877590365,-0.20485109,0.14321178,-2.7797182,-0.0012140946,0.008118256,0.07701784,0.014994046,0.0025089828,-0.09564682,0.14015461493223869,-0.11366121250627323,89.34491809325901
1729571877606365,-0.20444956,0.14388016,-2.7788594,-0.0010183053,0.008124515,0.07553206,0.012236829,0.00039121366,-0.092861705,0.1420791435107912,-0.10857416608960416,89.34432394364173
1729571877614365,-0.20425372,0.1442057,-2.778428,-0.0009249585,0.008104689,0.07480394,0.011668351,-0.0024782491,-0.09101442,0.1437110496198594,-0.10622698479976701,89.3439312719255
1729571877622365,-0.20406121,0.14452559,-2.777996,-0.0008626465,0.008087619,0.07408966,0.0077889995,-0.0021337764,-0.08928496,0.14559844686118104,-0.10387438755273223,89.34353848293564
1729571877630365,-0.20387192,0.14483984,-2.777563,-0.000775615,0.008047661,0.07340161,0.010878938,-0.004994799,-0.0860067,0.14770291535658348,-0.10151471348660346,89.34308088958059
1729571877646365,-0.20352304,0.1454403,-2.7767112,-0.00064209534,0.007964774,0.0720767,0.008344977,-0.005180423,-0.08280668,0.15255661802426282,-0.09630531910848347,89.34207687717935
1729571877654365,-0.20336325,0.1457267,-2.7762916,-0.0006132752,0.007896554,0.07142661,0.0036025157,-0.008527539,-0.08126161,0.1552713011488794,-0.09347719669649227,89.34213842333914
1729571877662365,-0.2031318,0.14614366,-2.776635,-0.0004954211,0.007925457,0.07062915,0.014731762,0.0036129493,-0.09968224,0.1581839121395899,-0.09044654981230452,89.34217948024391
1729571877678365,-0.20268014,0.14695483,-2.7772605,-0.00031538893,0.007927616,0.069073215,0.011252011,0.00013492536,-0.0972459,0.16391704547967728,-0.08458027758372495,89.34262702463762
1729571877686365,-0.20245989,0.14734933,-2.777544,-0.00023422483,0.007931213,0.06833277,0.0101455115,0.00044959594,-0.09255576,0.16683046878613889,-0.08145110050378684,89.34291053746071
1729571877694365,-0.20224321,0.1477367,-2.7778084,-0.00014109015,0.007924253,0.06763105,0.011641836,-0.00086997164,-0.08771475,0.16965568639322148,-0.07831821508405543,89.3432214083802
1729571877702365,-0.20202997,0.14811695,-2.7780542,-5.1973984e-05,0.007891033,0.066972695,0.0111395195,-0.0041525345,-0.08229445,0.1727340033938372,-0.07522341624003957,89.34344003852927
1729571877710365,-0.20182025,0.14849001,-2.778294,2.7846545e-06,0.007843016,0.066360116,0.0068448293,-0.0060021407,-0.07657241,0.1758406841738535,-0.07214987526211226,89.34370985262073
1729571877726365,-0.20142499,0.1492143,-2.7787194,0.000111898626,0.0077501293,0.06527754,0.006819623,-0.005805399,-0.06766105,0.18239788123226966,-0.06545425066171315,89.34410958826874
1729571877734365,-0.20123243,0.14956611,-2.7789052,0.00014871155,0.0076835137,0.06480692,0.0046016155,-0.008326955,-0.058826987,0.18580565850473865,-0.06200837807256518,89.34433504803027
1729571877742365,-0.2010432,0.14991102,-2.7790737,0.0001963512,0.0075967074,0.06437795,0.005954956,-0.010850781,-0.053621825,0.1892189314157737,-0.05843572692526223,89.34442038076953
1729571877758365,-0.2006747,0.15058057,-2.7793586,0.00025729177,0.0074440264,0.06366756,0.0038087855,-0.009542564,-0.044399403,0.19619142844717047,-0.050822730577309086,89.34454351153123
1729571877766365,-0.2004953,0.1509055,-2.779489,0.00027728593,0.0073644225,0.063370764,0.0024992696,-0.009950482,-0.037099235,0.19978580411630356,-0.04699320753243917,89.34462888333199
1729571877774365,-0.20031917,0.15122394,-2.7796025,0.0002878551,0.0072634663,0.06312587,0.0013211465,-0.012619536,-0.03061164,0.20356061814066387,-0.04318242103229187,89.34470750350654
1729571877782365,-0.20014632,0.15153584,-2.7796988,0.00029672176,0.007150483,0.0629147,0.0011083321,-0.014122924,-0.026396474,0.20742043505054902,-0.03948527335641467,89.34470750350654
1729571877798365,-0.19873431,0.15302864,-2.7794917,0.00069407537,0.007515091,0.06274543,0.0248346,0.022788007,-0.010579358,0.21519261354947603,-0.03248601560927575,89.34567410740922
1729571877806365,-0.1980517,0.1537536,-2.7793696,0.00086721295,0.0076615727,0.06270244,0.021642197,0.018310208,-0.005373731,0.21913472396165218,-0.029143457949778212,89.34658595631363
1729571877814365,-0.19738418,0.15446451,-2.7792354,0.0010419618,0.007795304,0.06267856,0.02184361,0.016716424,-0.0029848886,0.22304615191759974,-0.02593895160007436,89.3474843014052
1729571877822365,-0.19673136,0.15516183,-2.779089,0.0011995282,0.007935284,0.06265971,0.019695798,0.017497456,-0.002356246,0.22687303004417814,-0.022697052710907526,89.34835183463811
1729571877838365,-0.19546878,0.15651676,-2.7787895,0.0014651163,0.008164411,0.06264044,0.016599253,0.014320481,-0.0012042001,0.23465346327072836,-0.016167898413420836,89.35007653992403
1729571877846365,-0.19485845,0.15717478,-2.7786224,0.0015729662,0.0082573835,0.0626417,0.013481243,0.011621508,0.0001573935,0.23878549627096401,-0.01255532853799336,89.3508347582764
1729571877854365,-0.19426173,0.15782028,-2.778444,0.0016690872,0.008361053,0.06263361,0.012015123,0.012958654,-0.0010114163,0.2432900913711689,-0.008608653068397573,89.35164761459237
1729571877862365,-0.19367725,0.15845434,-2.7782545,0.0017548379,0.008449961,0.06261612,0.010718838,0.011113588,-0.0021867454,0.24799493564438077,-0.004455644561079646,89.35233749674326
1729571877878365,-0.19254722,0.15968639,-2.777845,0.0018859861,0.008563803,0.06254135,0.008196759,0.007115071,-0.004672911,0.2577456119461089,0.005065292307463328,89.354393522305
1729571877886365,-0.19200118,0.16028486,-2.7776408,0.0019412157,0.008615116,0.062504604,0.0069037047,0.0064141345,-0.004593283,0.26261706272545376,0.01041154288971263,89.35530199512489
1729571877894365,-0.19146739,0.16087188,-2.7774262,0.0019852878,0.008634004,0.06247265,0.0055090054,0.0023610191,-0.0039944425,0.26766921834195473,0.016304142016534275,89.356193278432
1729571877902365,-0.19094563,0.16144751,-2.7772021,0.0020197816,0.008639092,0.062432535,0.0043117325,0.00063597684,-0.0050142403,0.2726836483141243,0.02254677519724073,89.3570847153305
1729571877910365,-0.19063057,0.16208819,-2.7776136,0.0019109765,0.008589919,0.062250767,-0.013600641,-0.006146612,-0.02272101,0.27786826062393183,0.02908305345650805,89.35788383554194
1729571877926365,-0.19002084,0.16333292,-2.778361,0.0017049699,0.008466664,0.061798494,-0.012875411,-0.007703434,-0.028267035,0.2889822327251842,0.04212496871752032,89.35896301439587
1729571877934365,-0.18972608,0.16393755,-2.7786992,0.0015700132,0.008393325,0.061559957,-0.016869584,-0.009167357,-0.029817222,0.29460635598168433,0.04827982485173417,89.35905513979155
1729571877942365,-0.18943906,0.164529,-2.7790143,0.0014408053,0.008293479,0.061348647,-0.016150996,-0.012480769,-0.026413703,0.30015422861816515,0.05415805875748268,89.35909604197545
1729571877958365,-0.1888876,0.16567269,-2.7796016,0.0011568703,0.008053589,0.061016075,-0.017745936,-0.014993128,-0.020785721,0.3114006308604274,0.06575224454001793,89.35889103440054
1729571877966365,-0.18862322,0.16622531,-2.779862,0.0009952246,0.007929931,0.060883176,-0.020205712,-0.01545716,-0.016612466,0.316987424789921,0.07163333512940508,89.35870993095062
1729571877974365,-0.18836641,0.16676542,-2.780101,0.00082215364,0.007801674,0.060775224,-0.021633865,-0.016032193,-0.013493932,0.3222741230580645,0.07747508614873484,89.35850837638286
1729571877982365,-0.18811698,0.16729309,-2.7803195,0.0006647442,0.00764482,0.060691953,-0.019676182,-0.019606726,-0.010408926,0.32719720795967305,0.0834005612402425,89.35821792005827
1729571877990365,-0.18787491,0.16780838,-2.7805173,0.00048384792,0.0074853413,0.06062389,-0.022612032,-0.019934842,-0.008507632,0.3317739004295307,0.08947768895229136,89.35793778478545
1729571878006365,-0.18740821,0.16880617,-2.780866,0.00014122429,0.0071419757,0.060589656,-0.021413974,-0.021460349,-0.0021397136,0.3393057059442407,0.10144737198462779,89.3572067314933
1729571878014365,-0.18718345,0.16928886,-2.7810168,-3.350412e-05,0.006951294,0.06060653,-0.02184105,-0.023835221,0.0021094456,0.3424445237825993,0.10720476409403275,89.35641424823031
1729571878022365,-0.18696573,0.1697597,-2.7811484,-0.0002068789,0.006747019,0.06064425,-0.021671847,-0.025534362,0.0047148205,0.3453357320050178,0.11297763196333843,89.35562184146109
1729571878030365,-0.186755,0.1702188,-2.7812612,-0.00039346365,0.0065353904,0.060691543,-0.023323093,-0.026453577,0.0059115696,0.34802142526201796,0.11851577942476463,89.35480192320627
1729571878046365,-0.18574935,0.17041574,-2.7814217,-0.00028664686,0.005802298,0.06075168,0.006676049,-0.045818273,0.0037585848,0.35264153308642243,0.12980234670075821,89.3538864260412
1729571878054365,-0.1852638,0.17050862,-2.7814763,-0.00025486064,0.005407594,0.06081181,0.0039732764,-0.049337976,0.0075162384,0.35468032532764626,0.13551865673154806,89.35384180144844
1729571878062592,-0.18478952,0.1705977,-2.7815142,-0.00023145785,0.005029514,0.060902715,0.0028446333,-0.04595602,0.011049536,0.35648539623394476,0.1412262569255595,89.35373920076873
1729571878070592,-0.18432629,0.17068286,-2.781549,-0.00021891136,0.004620606,0.06095003,0.0015683108,-0.051113483,0.0059143635,0.3582651274856996,0.14649302972985745,89.35366395767355
1729571878086592,-0.18340932,0.17082691,-2.7815711,-0.00015892182,0.0037750134,0.06104394,0.0037493464,-0.052849542,0.005869427,0.3617956230091849,0.15500015317478244,89.35403587247727
1729571878094592,-0.18296646,0.17089269,-2.781559,-0.00015085106,0.0033404252,0.061107125,0.0010088442,-0.05432352,0.007898081,0.3639170788516242,0.15811777264398008,89.35444569780157
1729571878102592,-0.18253379,0.1709541,-2.7815323,-0.00015317218,0.0028831374,0.061167344,-0.00029013972,-0.05716097,0.0075274142,0.36631933721546467,0.16070587740811668,89.35472560345288
1729571878110592,-0.18211107,0.17101103,-2.7814908,-0.00015787163,0.002434917,0.06124154,-0.0005874317,-0.05602755,0.009274576,0.36892113588478825,0.16302326845560433,89.35508416708034
1729571878126592,-0.18129508,0.17111142,-2.7813792,-0.00024113199,0.0015357827,0.06137048,-0.005203772,-0.056195892,0.008058734,0.37465801442346863,0.16682331063646122,89.35570563908529
1729571878134592,-0.18090156,0.17115481,-2.7813096,-0.00030923297,0.0010733258,0.061418656,-0.008512623,-0.057807118,0.0060219313,0.3775426000277152,0.16799218510839636,89.35597537725779
1729571878142592,-0.18051752,0.17119351,-2.7812266,-0.0003851815,0.00061106385,0.06146667,-0.009493567,-0.057782736,0.006001908,0.3806779733435712,0.16868493203080714,89.35636812840713
1729571878158592,-0.1797286,0.17126967,-2.7810218,-0.00049113506,-0.00031859064,0.061563104,-0.006622096,-0.0581034,0.0060270536,0.38718521551672663,0.16848820305480622,89.35677112425266
1729571878166592,-0.17909336,0.17152928,-2.7812274,-0.00047404759,-0.0006748256,0.06146141,0.0021359336,-0.04452937,-0.012711621,0.390423901006309,0.1676369337065055,89.35684974348848
1729571878174592,-0.17847306,0.17177923,-2.7814136,-0.0004635261,-0.0010305052,0.061361384,0.0013151838,-0.04445994,-0.01250347,0.39359743359547045,0.16604106391328402,89.3572015925227
1729571878182592,-0.17786737,0.17201991,-2.7815814,-0.00047818944,-0.001346099,0.061293345,-0.0018329155,-0.039449222,-0.008504838,0.39662609382331715,0.16397687080005688,89.35752600744948
1729571878198592,-0.17669855,0.17247415,-2.7818875,-0.00050326023,-0.0020138181,0.061199088,-0.0015669247,-0.041732445,-0.0058910805,0.40295827439938825,0.1587808237972237,89.35804879241401
1729571878206592,-0.17613488,0.17268792,-2.7820134,-0.00055007293,-0.0023578675,0.061177056,-0.005851587,-0.043006174,-0.0027539206,0.4061298301676674,0.1559140011649023,89.35826408369715
1729571878214592,-0.17558499,0.1728929,-2.7821217,-0.00063850894,-0.0027182775,0.061167467,-0.0110545,-0.045051243,-0.0011986122,0.40932643999180635,0.1527374314092853,89.35846563885148
1729571878222592,-0.17504868,0.17308922,-2.7822127,-0.00070943276,-0.003058046,0.06115032,-0.0088654775,-0.042471074,-0.002143439,0.4124604045605388,0.14965800588701172,89.35870487246137
1729571878238592,-0.17405573,0.17343542,-2.7823448,-0.0009248115,-0.0037494316,0.06118527,-0.013461173,-0.04321159,0.002184417,0.4194570059385058,0.14388574338521695,89.35903630801484
1729571878246592,-0.17357822,0.17359656,-2.7824001,-0.0010535207,-0.004094989,0.06122568,-0.016088648,-0.04319468,0.0050510275,0.4231607097736273,0.14123554174216954,89.35903296953138
1729571878254592,-0.1731132,0.17374998,-2.782439,-0.0012070988,-0.004419398,0.061262153,-0.019197265,-0.040551122,0.0045592897,0.4270562152222941,0.1386563905848646,89.35909789065941
1729571878262592,-0.1726606,0.17389598,-2.7824621,-0.0013785337,-0.0047359806,0.06129624,-0.021429352,-0.039572824,0.004260801,0.43106502740045116,0.13609692991877967,89.35903642262602
1729571878270592,-0.17222019,0.17403463,-2.78247,-0.0015366635,-0.005070547,0.061350543,-0.01976623,-0.041820806,0.006787944,0.4352124391553104,0.1335554255000494,89.3589682394362
1729571878286592,-0.17217547,0.17456888,-2.7822108,-0.0023135275,-0.00563911,0.06150868,-0.048554,-0.035535194,0.00988366,0.443437200171465,0.12870271012676923,89.35880102448479
1729571878294592,-0.17255075,0.17495413,-2.7819502,-0.0029072827,-0.005877848,0.0616138,-0.07421939,-0.029842192,0.013139564,0.4480091368085201,0.12627209058004252,89.3568919871577
1729571878302592,-0.17292148,0.17532629,-2.7816813,-0.003498004,-0.0061193327,0.061744172,-0.07384017,-0.030185618,0.016296748,0.452604203908163,0.12377709124124142,89.35530728784624
1729571878318592,-0.17365028,0.1760325,-2.7811494,-0.0046603917,-0.0065954267,0.062004067,-0.072649226,-0.029755872,0.01624343,0.46127293476004616,0.1194864287726487,89.35197397492936
1729571878326592,-0.17400903,0.17636718,-2.7808712,-0.0052465335,-0.006833519,0.06212547,-0.07326773,-0.029761517,0.015175435,0.4649455508320859,0.11792859534959045,89.35032443175956
1729571878334592,-0.17436446,0.17668991,-2.7805848,-0.0058369483,-0.0070737847,0.06223267,-0.07380184,-0.03003323,0.013399868,0.4681369455742643,0.11680916234849886,89.34864419377583
1729571878342592,-0.17471686,0.17700094,-2.7802908,-0.0064137075,-0.007302676,0.06233454,-0.0720949,-0.028611392,0.012733973,0.470690883476252,0.11616577587527491,89.34690582551703
1729571878358592,-0.1754137,0.17758903,-2.7796805,-0.0075940276,-0.0077903117,0.062483717,-0.07377,-0.030477239,0.00932347,0.47382160850612676,0.1152321324688979,89.34327534177481
1729571878366592,-0.17575355,0.17786872,-2.7793806,-0.008147385,-0.008057808,0.06252769,-0.06916967,-0.03343698,0.0054961997,0.4743310030664315,0.11488269821918032,89.34144131811671
1729571878374592,-0.17609134,0.17813748,-2.779074,-0.008702126,-0.008309809,0.06253125,-0.069342665,-0.031500123,0.00044517216,0.4739702137006222,0.1148509084271853,89.3390710411283
1729571878382592,-0.17642735,0.17839539,-2.7787607,-0.009252136,-0.008592029,0.062502496,-0.068751164,-0.035277568,-0.0035939736,0.4728703971962896,0.11528514658351109,89.33677251571558
1729571878390592,-0.17676185,0.1786426,-2.7784412,-0.009815542,-0.008869931,0.06242292,-0.07042579,-0.034737747,-0.00994699,0.4710153071734704,0.11619551127167989,89.33434418547711
1729571878406592,-0.17742723,0.17910574,-2.7777855,-0.010915565,-0.009442562,0.062249646,-0.068751454,-0.035789445,-0.010829651,0.4658543947080929,0.11900032369028077,89.32945333572128
1729571878414592,-0.1775084,0.17920294,-2.7779095,-0.011462838,-0.009838503,0.06206972,-0.06840913,-0.049492575,-0.022490507,0.4624117567839603,0.1204172975511097,89.32693959296041
1729571878422592,-0.17759608,0.17929192,-2.7780163,-0.01200046,-0.010247337,0.061888915,-0.06720272,-0.05110423,-0.022600869,0.4584053782027547,0.12178144412184536,89.32419705384416
1729571878430592,-0.17768495,0.17938097,-2.7781208,-0.012512366,-0.010637806,0.06168871,-0.06398826,-0.048808634,-0.025025567,0.4534812978721278,0.12327145596438288,89.32150228219598
1729571878446592,-0.17788157,0.17953502,-2.7782803,-0.0135327615,-0.011422134,0.061306525,-0.0637747,-0.04902051,-0.02388656,0.44219595544695983,0.12627997466520488,89.31540244653159
1729571878454592,-0.17798899,0.17960022,-2.7783365,-0.014021372,-0.011814564,0.061140317,-0.061076365,-0.049053688,-0.020775942,0.4361744314174783,0.12751280015359193,89.31242761438283
1729571878462592,-0.17810221,0.17965761,-2.7783773,-0.014502455,-0.012218639,0.06099611,-0.060135264,-0.050509464,-0.018025748,0.4300203357691277,0.12843391749382393,89.30949729827499
1729571878478592,-0.17834516,0.17974892,-2.778413,-0.01541163,-0.013064333,0.06080637,-0.05682348,-0.05285587,-0.011858762,0.41685132373728867,0.12924999376085095,89.30367752117135
1729571878486592,-0.17847449,0.17978284,-2.7784238,-0.01584209,-0.013489942,0.0607247,-0.053807393,-0.0532011,-0.0102086915,0.4097442290339312,0.12902623779612699,89.30091453353488
1729571878494592,-0.17860875,0.17980903,-2.7784197,-0.016263435,-0.01391663,0.060652703,-0.05266815,-0.053336028,-0.008999836,0.40238853440989625,0.1285000317567447,89.29809336829008
1729571878502592,-0.17874776,0.1798277,-2.7784011,-0.016656129,-0.014325042,0.060579527,-0.04908675,-0.051051494,-0.009146985,0.3947204194040946,0.1276312748808937,89.29534745500747
1729571878518592,-0.17904675,0.17983454,-2.7783227,-0.017389445,-0.015181809,0.060486592,-0.045832243,-0.053547904,-0.0058084256,0.378667737102553,0.12511643846787301,89.29029277122616
1729571878526592,-0.17920241,0.17982697,-2.7782633,-0.017755413,-0.015599167,0.060439374,-0.045746095,-0.052169777,-0.0059022564,0.37065972242415984,0.1235875663904101,89.28806262670409
1729571878534592,-0.179362,0.17981234,-2.7781909,-0.018101538,-0.01600224,0.060395766,-0.043265518,-0.050384082,-0.0054510306,0.36281941366158144,0.12217675555612281,89.28584614209039
1729571878542592,-0.17922893,0.18031771,-2.7781265,-0.01841943,-0.016025,0.060337722,-0.039736506,-0.0028449574,-0.007255468,0.35521036734712064,0.12069103933238012,89.28366717851299
1729571878558592,-0.17899778,0.18128037,-2.7779903,-0.019010872,-0.016129177,0.060202908,-0.036965124,-0.0065111085,-0.008425908,0.3408921618883597,0.11615232891271175,89.27604415813487
1729571878566592,-0.17889883,0.18173827,-2.7779038,-0.019269003,-0.016206942,0.060127683,-0.032266367,-0.009720679,-0.009403098,0.334114402411386,0.11365719709419253,89.27242046409171
1729571878574592,-0.17881031,0.18218103,-2.7778056,-0.019515108,-0.016272752,0.060059387,-0.030763213,-0.0082261395,-0.008536968,0.32778590212901576,0.11114527680128532,89.26883442046572
1729571878582592,-0.17872624,0.18259984,-2.7776957,-0.019762503,-0.016360395,0.060005125,-0.030924331,-0.010955379,-0.006782822,0.32188443633640673,0.10882212774910544,89.26542590469758
1729571878598592,-0.17858729,0.18339469,-2.777442,-0.020188328,-0.016582651,0.059861656,-0.026614055,-0.0138910245,-0.008966774,0.31065025717197176,0.10523815315113738,89.26008083600223
1729571878606592,-0.17853178,0.18377125,-2.7773154,-0.020400455,-0.016711134,0.05977169,-0.026515916,-0.016060425,-0.011245719,0.3051384130909188,0.10428443970331173,89.25775503803138
1729571878614592,-0.17848514,0.18413442,-2.7771778,-0.020588467,-0.016826594,0.059701048,-0.023501458,-0.014432472,-0.008830335,0.29972827383698036,0.10389982738116577,89.25543948500001
1729571878622592,-0.17844716,0.18448444,-2.7770298,-0.02079242,-0.016969228,0.059632465,-0.025494022,-0.01782924,-0.008572824,0.2945603280149998,0.1038435982900304,89.25319546541651
1729571878630592,-0.17841752,0.18482162,-2.776872,-0.020975001,-0.017098134,0.059554454,-0.022822756,-0.016113278,-0.009751413,0.2896772366454474,0.10402091002579744,89.25108817145458
1729571878646592,-0.17838214,0.18545875,-2.776527,-0.021306837,-0.017398646,0.059384376,-0.020739738,-0.018781982,-0.010629882,0.28129768113900033,0.1048557352860571,89.24726974588849
1729571878654592,-0.17837246,0.18575935,-2.7763407,-0.021450577,-0.017558362,0.05930279,-0.01796754,-0.019964527,-0.010198447,0.27798610049888356,0.10532512481807024,89.24544934044637
1729571878662592,-0.17798841,0.18598916,-2.7757366,-0.021487853,-0.017681189,0.05930564,-0.004659407,-0.015353317,0.00035669652,0.27498355593898827,0.1060862453087023,89.24394318700989
1729571878670592,-0.17762074,0.18620977,-2.7751536,-0.021524336,-0.017822737,0.05931074,-0.004560454,-0.0176935,0.00063749024,0.2720955388154155,0.10715872026753129,89.24219098735766
1729571878686592,-0.17693242,0.18662387,-2.773991,-0.021586658,-0.0181385,0.059301507,-0.00389514,-0.01973519,-0.00057718717,0.26709547009388845,0.11045562650876294,89.23884389431178
1729571878694592,-0.17661098,0.18681774,-2.7734118,-0.021643436,-0.0183009,0.059271377,-0.007097143,-0.020300036,-0.0037662683,0.2651452391513445,0.11253157439006843,89.23730004192674
1729571878702592,-0.17630419,0.18700291,-2.7728338,-0.021690506,-0.018474406,0.059205834,-0.0058838627,-0.021688173,-0.008192845,0.2633951093162053,0.1148015095184189,89.23587575264074
1729571878710592,-0.17601144,0.18717943,-2.7722573,-0.021711608,-0.018665452,0.059128694,-0.0026377381,-0.023880739,-0.009642448,0.2617408411705107,0.11703762731586587,89.23458814622698
1729571878726592,-0.17550205,0.18749975,-2.77113,-0.021825515,-0.019103773,0.05885952,-0.0071191457,-0.027395085,-0.016823411,0.2592071663542194,0.12102042326982136,89.23268560230532
1729571878734592,-0.17526665,0.18764699,-2.7705796,-0.021882946,-0.019327682,0.05866727,-0.007178867,-0.02798857,-0.02403138,0.2587785641462322,0.12283747114691428,89.23205709688811
1729571878742592,-0.17504364,0.18778577,-2.770031,-0.021953175,-0.019542966,0.058486268,-0.008778647,-0.026910564,-0.022625083,0.2589035497092733,0.12448984716631746,89.23152434303961
1729571878758592,-0.17463373,0.18803805,-2.7689393,-0.022106795,-0.020045735,0.058004763,-0.009601237,-0.031423055,-0.030094057,0.26051600386257906,0.1279304565868705,89.23059178321184
1729571878766592,-0.17444624,0.18815151,-2.7683969,-0.022188997,-0.020308916,0.057723787,-0.010275281,-0.032897573,-0.035122037,0.26161861050483715,0.1296909956554851,89.23029460432522
1729571878774592,-0.17426996,0.18825665,-2.7678568,-0.02227066,-0.020564262,0.05745327,-0.010207993,-0.031918287,-0.03381446,0.2627255929032232,0.1314807766709095,89.23010328404854
1729571878782592,-0.1741047,0.18835956,-2.767319,-0.022346182,-0.020826174,0.057142742,-0.009440118,-0.032739013,-0.038816128,0.2639429358256698,0.1330800056942211,89.23004514075274
1729571878790592,-0.17408998,0.18852031,-2.7671144,-0.022474064,-0.020980157,0.05679895,-0.01598522,-0.019247876,-0.042974014,0.2653369976623926,0.13448409364386407,89.22963176690645
1729571878806592,-0.1740815,0.18881679,-2.7666862,-0.022746071,-0.021328395,0.056051012,-0.017000478,-0.021764891,-0.046746105,0.26886333660401956,0.1359679030128348,89.227278467576
1729571878814592,-0.1740874,0.18895261,-2.7664628,-0.022878878,-0.02152645,0.05569518,-0.016600825,-0.02475688,-0.04447903,0.2709626634911814,0.1362554120994828,89.22618554934476
1729571878822592,-0.17409985,0.18908022,-2.7662337,-0.023015358,-0.021714969,0.055349015,-0.017059967,-0.023564788,-0.04327064,0.2733468015184866,0.13615394615101029,89.22529068909725
1729571878838592,-0.17414376,0.18931109,-2.765759,-0.023268502,-0.022143528,0.054661706,-0.01582154,-0.026784953,-0.042956784,0.2782669841650216,0.135557556902148,89.22361721017776
1729571878846592,-0.17417502,0.18941446,-2.7655334,-0.023424495,-0.022363476,0.054299295,-0.0194991,-0.027493572,-0.04530139,0.2806016836183133,0.13534360596462117,89.22286927853513
1729571878854592,-0.17420731,0.1895049,-2.765303,-0.02354567,-0.022590976,0.05394696,-0.015146797,-0.028437467,-0.044041775,0.28278281188545845,0.13517610578065425,89.22231949745287
1729571878862592,-0.17424543,0.18958762,-2.765067,-0.023659822,-0.022811966,0.05360536,-0.014269025,-0.027623724,-0.042700205,0.28483088610170976,0.13492626957339213,89.22226822926508
1729571878878592,-0.1743388,0.18972969,-2.7645807,-0.023901524,-0.023334406,0.05293676,-0.0151064005,-0.032652516,-0.04178751,0.2886720350277214,0.13457790228183622,89.22245262787949
1729571878886592,-0.17439374,0.18978904,-2.7643304,-0.024018042,-0.023616454,0.052604903,-0.01456472,-0.035255913,-0.041482035,0.2904830559737645,0.13423476437318993,89.22268834101487
1729571878894592,-0.17445402,0.18984067,-2.7640758,-0.02413051,-0.023882516,0.052286267,-0.014058546,-0.03325776,-0.039829403,0.2922833341439139,0.13392188215557702,89.22294454285598
1729571878902592,-0.17451948,0.18988481,-2.7638168,-0.02423919,-0.024144396,0.051971804,-0.013584969,-0.032735057,-0.039307863,0.2940439563144304,0.13359555297047176,89.22322450929789
1729571878918592,-0.17397606,0.18992858,-2.7643266,-0.024263293,-0.024848321,0.05113171,-0.0015064141,-0.04399533,-0.05250587,0.2973090360741024,0.13282667436307885,89.22502101290807
1729571878926592,-0.17372727,0.18994588,-2.764556,-0.024291387,-0.025190312,0.050730117,-0.0035117844,-0.04274887,-0.050199214,0.2988617221724878,0.13241993017227208,89.22649989472534
1729571878934592,-0.17349124,0.18995504,-2.7647688,-0.024334712,-0.025527455,0.050324447,-0.0054156403,-0.04214281,-0.050708648,0.30027924666037503,0.13198960042856778,89.22749387586039
1729571878942592,-0.17326768,0.18995623,-2.764966,-0.024374543,-0.025857922,0.04992741,-0.00497885,-0.041308343,-0.04962971,0.30153631683130067,0.1316019328066947,89.22854244746229
1729571878958592,-0.17285678,0.18993491,-2.765314,-0.024491293,-0.026546353,0.04926783,-0.007296912,-0.043026984,-0.041223828,0.3030365316030002,0.13074052630106459,89.23075223272735
1729571878966592,-0.17266883,0.18991241,-2.7654836,-0.024532111,-0.026899887,0.04896609,-0.0051022503,-0.044191718,-0.037717167,0.3035113758076742,0.13004437881151773,89.2319817425056
1729571878974592,-0.17249198,0.18988217,-2.765638,-0.024574753,-0.02723464,0.048680335,-0.0053301915,-0.04184409,-0.03571948,0.30356044913734903,0.1290656315456908,89.23331046432658
1729571878982592,-0.17232591,0.18984427,-2.765778,-0.024617115,-0.027583426,0.04840988,-0.005295267,-0.043598235,-0.03380701,0.3033501917096137,0.12777771076517358,89.23470393001597
1729571878990592,-0.17217036,0.18979879,-2.7659037,-0.024663473,-0.02792269,0.048165005,-0.0057946886,-0.042408004,-0.030609312,0.30292308691569325,0.12613040383170315,89.23610085611018
1729571879006592,-0.17191944,0.18967302,-2.7661128,-0.024781765,-0.028624587,0.047717303,-0.007393304,-0.04386855,-0.027981352,0.302249048351608,0.12178527277168887,89.23913046536785
1729571879014592,-0.17180833,0.18959913,-2.766197,-0.024832886,-0.028976087,0.04751696,-0.0063900365,-0.043937467,-0.025042797,0.30202660690458166,0.11919857302729076,89.24081778493384
1729571879022592,-0.17170641,0.18951797,-2.766268,-0.024906147,-0.029336145,0.04735314,-0.009157695,-0.045007326,-0.020477453,0.3019366235665032,0.11634497532837716,89.24244008729929
1729571879030592,-0.17161347,0.18942961,-2.766345,-0.024952604,-0.02968467,0.04721056,-0.0058070286,-0.04356564,-0.01782272,0.30185905517701367,0.11317510752424943,89.24410013278391
1729571879046592,-0.17107405,0.18869753,-2.7662435,-0.024984522,-0.030583719,0.04694618,-0.001994893,-0.05619053,-0.016523758,0.30195295052877497,0.10646829633243157,89.24786751626894
1729571879054592,-0.17082404,0.18833005,-2.7661784,-0.025018036,-0.031014012,0.04685586,-0.004189322,-0.05378667,-0.011289957,0.30219460087595135,0.10307710173914883,89.24999188408647
1729571879062592,-0.17058681,0.18796149,-2.766104,-0.025059083,-0.03146289,0.04678226,-0.0051308884,-0.056109622,-0.00920007,0.3026610309921941,0.09987333778695665,89.25198311897327
1729571879078592,-0.17014545,0.18722019,-2.7659283,-0.02514271,-0.03232657,0.0465986,-0.0052266982,-0.053980153,-0.011478783,0.30372851865806166,0.09327693314963899,89.25607832086627
1729571879086592,-0.16994078,0.18684748,-2.7658482,-0.025184965,-0.03274623,0.04650064,-0.0052817627,-0.052457206,-0.012244563,0.3042317136216823,0.08983652111698674,89.2581617546099
1729571879094592,-0.16974768,0.1864736,-2.7657592,-0.025218453,-0.03313051,0.046412192,-0.004186062,-0.048035286,-0.011056195,0.30477276751010823,0.0862851053679862,89.26027263886175
1729571879102592,-0.16956577,0.18609846,-2.7656615,-0.02524656,-0.033547007,0.046355538,-0.0035134142,-0.05206186,-0.0070817764,0.30554206084262703,0.08254917459936956,89.26237318972979
1729571879118592,-0.16923428,0.18534386,-2.7654405,-0.025313415,-0.034353416,0.046273503,-0.0041783787,-0.050400615,-0.005127163,0.3073536192975064,0.0742026756172528,89.26658444691947
1729571879126592,-0.16908422,0.18496443,-2.7653177,-0.025344297,-0.034734145,0.046212647,-0.0038603318,-0.047591045,-0.0076070423,0.3084703583343824,0.06975631233924352,89.2686849092833
1729571879134592,-0.16894428,0.18458365,-2.7651868,-0.025394391,-0.035109006,0.04617195,-0.006261747,-0.04685763,-0.005087349,0.30962005536464815,0.0650776161774434,89.270727363129
1729571879142592,-0.16881323,0.18419442,-2.765048,-0.025448818,-0.03549134,0.04613077,-0.006803311,-0.047791746,-0.0051474194,0.3109184133745022,0.060092095375852514,89.2727868907441
1729571879150592,-0.16869198,0.1838038,-2.764923,-0.025515432,-0.035868276,0.04608103,-0.008326722,-0.047117002,-0.006217509,0.31230291285230843,0.054856152431326285,89.27462099650288
1729571879166592,-0.16894524,0.18317649,-2.764719,-0.025801258,-0.036426038,0.045967065,-0.017864164,-0.0348601,-0.0071227546,0.315098324438455,0.044067957982923775,89.27837470688605
1729571879174592,-0.16930877,0.18293771,-2.764639,-0.026063817,-0.03663669,0.04587999,-0.032819808,-0.026331747,-0.010884366,0.3166449044616176,0.03829831427124311,89.2784089411485
1729571879182592,-0.16967097,0.18269545,-2.76455,-0.026316551,-0.036828313,0.045795217,-0.03159186,-0.023952683,-0.010596587,0.31821731046571,0.03238807841820665,89.27844313239628
1729571879190592,-0.17003188,0.1824499,-2.7644527,-0.026564853,-0.03700556,0.045721497,-0.03103772,-0.022155697,-0.009214971,0.3197247694053721,0.026380886229779788,89.2784294300929
1729571879206592,-0.1707501,0.18194924,-2.7642548,-0.027046736,-0.03737202,0.045579102,-0.03011769,-0.022903781,-0.0088997185,0.32224758179871793,0.014254471542731614,89.27842272946941
1729571879214592,-0.17110762,0.18169425,-2.7641542,-0.027282303,-0.0375656,0.04553038,-0.029445857,-0.024197621,-0.0060903835,0.3231971423695213,0.00830084098514577,89.27836126264793
1729571879222592,-0.17144156,0.18142617,-2.7640452,-0.027473588,-0.037766412,0.04550052,-0.023910541,-0.02510147,-0.003732275,0.32401026136081446,0.00236036396743595,89.27825531708955
1729571879238592,-0.17210753,0.18088126,-2.763802,-0.027901493,-0.03816801,0.045463447,-0.02674409,-0.02509984,-0.0023171306,0.32458152614250446,-0.008948828509569379,89.27989131863518
1729571879246592,-0.17243972,0.18060449,-2.7636685,-0.028088145,-0.03837241,0.045434985,-0.023331491,-0.025549902,-0.003557652,0.3243746761138345,-0.014266037507953909,89.28072807943958
1729571879254592,-0.17277138,0.18032505,-2.7635274,-0.028282806,-0.038536232,0.045412846,-0.024332663,-0.020477919,-0.0027674248,0.3236234206439013,-0.019500483941555347,89.28137698200098
1729571879262592,-0.17310263,0.1800432,-2.7633789,-0.028486352,-0.038699616,0.045393594,-0.025443265,-0.02042297,-0.0024065375,0.32263229256392906,-0.024511388564298988,89.28203950110506
1729571879270592,-0.17343363,0.17975888,-2.763245,-0.028691726,-0.03888098,0.045366254,-0.025671672,-0.022670718,-0.003417488,0.32130588423791717,-0.029415491613335464,89.28281138029568
1729571879286592,-0.17388952,0.17909694,-2.762846,-0.029034778,-0.03930181,0.04526906,-0.021440791,-0.026301712,-0.006074551,0.31833415353366046,-0.03924945835161388,89.28421846017753
1729571879294592,-0.17401941,0.17872019,-2.7625844,-0.029158566,-0.039566062,0.045211546,-0.015473458,-0.033031683,-0.007189344,0.3166650133950488,-0.0440819118500833,89.28530446108222
1729571879302592,-0.17415395,0.17834198,-2.762319,-0.029285314,-0.03981466,0.04514192,-0.015843427,-0.031074507,-0.008703209,0.3146361195541223,-0.048793143100513796,89.28650319418996
1729571879318592,-0.17443702,0.1775808,-2.7617793,-0.029566476,-0.0403473,0.044954713,-0.01757266,-0.033290125,-0.011700437,0.30966466240346247,-0.05751950060171756,89.28880500327578
1729571879326592,-0.1745852,0.17719793,-2.7615283,-0.029683078,-0.040585052,0.04484944,-0.014575197,-0.029718967,-0.013159121,0.30664631940132553,-0.061959926389787666,89.28987060079531
1729571879334592,-0.17473759,0.17681374,-2.7612739,-0.029810287,-0.04080125,0.04474473,-0.015901169,-0.027024651,-0.0130888065,0.3031725288923389,-0.06661687769670037,89.29090879509194
1729571879342592,-0.17489411,0.17642817,-2.7610161,-0.029941257,-0.04103254,0.04463632,-0.016371254,-0.02891151,-0.013551208,0.29939012930180403,-0.07147122473191268,89.29195714971225
1729571879350592,-0.17505461,0.17604114,-2.760755,-0.030056298,-0.041254524,0.044511877,-0.014380085,-0.027747823,-0.015555414,0.2955409219477416,-0.07646447737381552,89.29307392797708
1729571879366592,-0.17539354,0.17526114,-2.7602246,-0.030283744,-0.041706145,0.04423342,-0.014215358,-0.02822629,-0.017403625,0.2880333114721226,-0.08614676720024893,89.29535862351837
1729571879374592,-0.17556824,0.17486891,-2.7599552,-0.030372394,-0.041911583,0.044072304,-0.011081341,-0.025679821,-0.020139383,0.284276191654172,-0.09100645927354001,89.29654374109703
1729571879382592,-0.17574616,0.17447534,-2.7596834,-0.030468702,-0.042113867,0.04392443,-0.0120385075,-0.025285406,-0.018484425,0.28051626931991963,-0.09593900967811174,89.29766047814842
1729571879398592,-0.17611118,0.17368436,-2.7591827,-0.03063131,-0.042462282,0.043564297,-0.01016294,-0.02177595,-0.022508202,0.2730032515929545,-0.1060219120202274,89.29989045475006
1729571879406592,-0.17629805,0.1732871,-2.7589283,-0.030713437,-0.042636685,0.04336046,-0.010265968,-0.021800397,-0.025479587,0.26928328242576777,-0.11123945888399221,89.30102085211881
1729571879414592,-0.17716043,0.17326441,-2.7594903,-0.031036424,-0.042632356,0.04297726,-0.040373296,0.0005410984,-0.047900245,0.2653517379237953,-0.11649429264321741,89.30208282801449
1729571879422592,-0.1780098,0.17323251,-2.760029,-0.031343143,-0.042614833,0.042593084,-0.038339987,0.0021904707,-0.048021782,0.2614452445772658,-0.12187427887552138,89.30161132924952
1729571879438592,-0.17969882,0.17311418,-2.7610397,-0.031976048,-0.042617727,0.04188984,-0.039556526,-0.0001809094,-0.043952834,0.2533561129740333,-0.13264706125025005,89.30120471237937
1729571879446592,-0.18052512,0.17304252,-2.7615328,-0.032280583,-0.042602982,0.04157788,-0.03806688,0.0018430873,-0.03899494,0.24932413788942595,-0.13787764003020467,89.30136850023348
1729571879454592,-0.18133965,0.17296296,-2.7620044,-0.032559384,-0.04258526,0.041304857,-0.03485009,0.0022151507,-0.03412785,0.2452894545302687,-0.14295438014099893,89.30155277726419
1729571879462592,-0.18214278,0.17287569,-2.7624545,-0.03284906,-0.04258284,0.041061733,-0.036209356,0.00030267984,-0.03039045,0.2412002880886303,-0.14792677387828002,89.30171989687567
1729571879478592,-0.1837161,0.17267877,-2.7632926,-0.033358492,-0.042590737,0.040687516,-0.03183959,-0.00049360096,-0.023388535,0.23232447167764037,-0.15738348450443104,89.30194502750474
1729571879486592,-0.18448664,0.17256944,-2.7636814,-0.033581104,-0.042605408,0.040559314,-0.02782652,-0.001833774,-0.016025268,0.22759381102480186,-0.1616233141813189,89.30207121070768
1729571879494592,-0.18524854,0.17246404,-2.7640505,-0.033795767,-0.04259362,0.040465474,-0.026832798,0.0014733522,-0.011730007,0.2225634481756932,-0.16543154702110568,89.30224191187123
1729571879502592,-0.1860003,0.17235196,-2.7644002,-0.03401369,-0.04255787,0.040417068,-0.027240252,0.0044689514,-0.0060508023,0.21717119158359569,-0.16869221581879518,89.30188318564373
1729571879510592,-0.18674223,0.17223354,-2.7647517,-0.034213684,-0.04250994,0.040399216,-0.02499949,0.0059911977,-0.002231449,0.2113203783119158,-0.1715251693250801,89.30155177814774
1729571879526592,-0.18819743,0.1719786,-2.7653964,-0.034574836,-0.042429145,0.040409707,-0.022571998,0.0050496305,0.00065565103,0.19838160543768135,-0.17633076315778806,89.30071147364202
1729571879534592,-0.188911,0.17184244,-2.7656906,-0.03471711,-0.04238166,0.04044858,-0.01778407,0.005935784,0.0048591755,0.19140566329469175,-0.17836551560752115,89.30026054586588
1729571879542592,-0.18923248,0.17141844,-2.766322,-0.034665693,-0.042504575,0.040412042,0.0064270566,-0.015364493,-0.004567206,0.18408807921353895,-0.17992979665653908,89.29977892599035
1729571879558592,-0.18987222,0.17057084,-2.7675047,-0.034497745,-0.04273394,0.040469266,0.010496703,-0.014335382,0.0035765113,0.16851302363304715,-0.18218842609463404,89.30319757318838
1729571879566592,-0.19017087,0.17014079,-2.768077,-0.034368556,-0.042847037,0.04054859,0.016148668,-0.01413701,0.009915325,0.16044092385351383,-0.18324765775089005,89.30496667805129
1729571879574592,-0.1904683,0.16971087,-2.768623,-0.03423129,-0.042975616,0.04065147,0.017158221,-0.0160723,0.012860167,0.15214356356457473,-0.1842730585140409,89.30702263163418
1729571879582592,-0.19076435,0.16928105,-2.7691436,-0.034081683,-0.0430792,0.040787682,0.018700957,-0.012948177,0.01702644,0.14391328613573665,-0.1853533412605059,89.30895577421835
1729571879598592,-0.19135195,0.16842191,-2.7701097,-0.033758607,-0.043270037,0.041142937,0.020192236,-0.011927214,0.022203427,0.12755721696900896,-0.18816994214277927,89.31302674581826
1729571879606592,-0.19164327,0.16799262,-2.7705562,-0.033596456,-0.043346502,0.04136098,0.020268837,-0.009558164,0.027255619,0.1198018110401228,-0.18994392001433416,89.31513742057467
1729571879614592,-0.19193281,0.16756356,-2.7709787,-0.03342363,-0.043425426,0.041610114,0.021603422,-0.009865499,0.031141562,0.11237718863745215,-0.19199663004572193,89.31708743369897
1729571879622592,-0.19222042,0.16713466,-2.7713778,-0.033224136,-0.043496616,0.041872915,0.024936626,-0.008898787,0.032850076,0.10537653800413133,-0.1941780074185002,89.3191024114705
1729571879630592,-0.19250852,0.16670828,-2.7717738,-0.033039793,-0.0435689,0.042184055,0.023042781,-0.009035692,0.038892496,0.09895047726592128,-0.19667732424461795,89.32110039628067
1729571879646592,-0.19307834,0.16585587,-2.772496,-0.032654043,-0.043686,0.042864893,0.024109378,-0.007318565,0.04255236,0.08803889692973166,-0.20262185273011116,89.32473394615795
1729571879654592,-0.19335996,0.16542995,-2.772823,-0.03245549,-0.043717578,0.043231595,0.02481928,-0.0039474107,0.04583783,0.08343121493578705,-0.20582320407482488,89.32657822232053
1729571879662592,-0.19342984,0.16542065,-2.7732325,-0.03213999,-0.04357364,0.043547552,0.039437316,0.01799222,0.039494593,0.07906711636086784,-0.20921676313444554,89.32839156447297
1729571879678592,-0.1935757,0.16537552,-2.7739806,-0.031512316,-0.043296486,0.04421476,0.03922963,0.017322134,0.04170043,0.0708981962636493,-0.2165508094256368,89.33235656479202
1729571879686592,-0.19365126,0.16534026,-2.7743406,-0.031200117,-0.04314795,0.044572785,0.039024975,0.018566847,0.044753306,0.06740723869169782,-0.22049399169056103,89.33438496856316
1729571879694592,-0.19372843,0.16529691,-2.7746778,-0.030894801,-0.042998068,0.0449396,0.038164433,0.018735416,0.0458518,0.06436598112076092,-0.22442855715598242,89.33647504005471
1729571879702592,-0.1938138,0.16524336,-2.7749922,-0.030592484,-0.042838987,0.045296356,0.037789576,0.019885132,0.044594515,0.06172488841003569,-0.22834962327674577,89.33846266550648
1729571879718592,-0.19398841,0.16511422,-2.7755563,-0.02999527,-0.042526964,0.04600211,0.037325893,0.019501429,0.04410953,0.05746637114304871,-0.23576465485604617,89.34291926225903
1729571879726592,-0.19407737,0.1650394,-2.7758067,-0.029683668,-0.042338356,0.046383873,0.03895024,0.023575963,0.0477205,0.05589806983657778,-0.23916158256516967,89.34515621717082
1729571879734592,-0.19416738,0.16495821,-2.776036,-0.02939024,-0.042157363,0.046781182,0.036678508,0.022624152,0.049663704,0.05465097608695952,-0.24232783008273795,89.34735203830951
1729571879742592,-0.19425833,0.16487083,-2.7762454,-0.029087635,-0.041978247,0.04719011,0.037825666,0.022389458,0.0511161,0.05360032153140162,-0.24511542625785035,89.34955822212966
1729571879750592,-0.1943501,0.1647775,-2.776456,-0.028777706,-0.04180568,0.047597338,0.038741156,0.021570826,0.050903294,0.05279565562245985,-0.24750470720442294,89.3516756578622
1729571879766592,-0.19453563,0.1645739,-2.7768173,-0.028149616,-0.041454297,0.048420537,0.039255593,0.021961516,0.05144998,0.05152372055753619,-0.25093875069869814,89.35552798397825
1729571879774592,-0.19464752,0.16446875,-2.7769687,-0.027856229,-0.041259795,0.04882304,0.036673386,0.02431264,0.050312836,0.05131848921623431,-0.2522842042169106,89.35743028175452
1729571879782592,-0.19475964,0.1643585,-2.7771015,-0.027563307,-0.041089687,0.049218472,0.036615178,0.02126349,0.04942901,0.051481200771921136,-0.2534605823564104,89.35925745169997
1729571879790592,-0.1954762,0.1642543,-2.776854,-0.027521024,-0.040853158,0.04961107,0.005285488,0.02956623,0.049074642,0.05204362586674586,-0.25437327534682264,89.36104364287247
1729571879806592,-0.19686946,0.16403371,-2.7763603,-0.027417565,-0.04039268,0.050407328,0.006466172,0.028779961,0.04976615,0.05450580852002582,-0.25580939021397564,89.3607566375753
1729571879814592,-0.19754697,0.16391757,-2.776114,-0.027364193,-0.040177137,0.05076953,0.006671529,0.026942695,0.045275312,0.056001830932689775,-0.25631859123791356,89.36056881720235
1729571879822592,-0.19821234,0.16379766,-2.7758603,-0.027337246,-0.039960872,0.05110786,0.0033683607,0.027033033,0.042291354,0.057669690373173425,-0.25683763745836663,89.3603604311001
1729571879838592,-0.19950795,0.16354711,-2.7753317,-0.027236264,-0.039532766,0.05172952,0.00631134,0.026756663,0.03885361,0.06072380830697302,-0.25757311750439216,89.3597661976459
1729571879846592,-0.20014116,0.1634219,-2.7750576,-0.027178552,-0.039306674,0.05202095,0.007214024,0.028261447,0.036428683,0.06188197662923453,-0.25759104693214824,89.35937336786604
1729571879854592,-0.20076348,0.16329332,-2.774777,-0.027128324,-0.039099455,0.052274488,0.0062785107,0.025902407,0.03169244,0.06286886828274732,-0.257284379015043,89.35843756650486
1729571879862592,-0.20137525,0.1631615,-2.77449,-0.027083566,-0.0388769,0.05249781,0.005594687,0.027819535,0.027915461,0.06358579812768966,-0.25680759499638434,89.35752563125605
1729571879878592,-0.2025688,0.16288866,-2.773949,-0.027018985,-0.038452983,0.05283784,0.004036352,0.026494728,0.021251848,0.0646579839874054,-0.255575960838577,89.35538436560145
1729571879886592,-0.20315117,0.16274771,-2.7736692,-0.026972517,-0.03826581,0.052975617,0.0058084256,0.023396684,0.017222017,0.06482869642514352,-0.25472610078813895,89.35423346351074
1729571879894592,-0.20372427,0.1626038,-2.773384,-0.026938181,-0.038074307,0.053102057,0.004292,0.023937782,0.01580501,0.06464817394920433,-0.25379235670980255,89.35302101616611
1729571879902592,-0.20428833,0.162457,-2.7730937,-0.026881384,-0.03788161,0.05322609,0.0070997044,0.02408726,0.015504192,0.06414780749111657,-0.2526519174239999,89.3518290969122
1729571879918592,-0.20579292,0.16148038,-2.772601,-0.027003095,-0.03760584,0.05340936,-0.007606926,0.017235521,0.011454335,0.06176340123499774,-0.25023192608129796,89.34815776144568
1729571879926592,-0.20652662,0.16100131,-2.7723691,-0.027069408,-0.037466336,0.053461026,-0.008289237,0.017438084,0.006458256,0.05998484083307631,-0.24943870946216512,89.34578067618506
1729571879934592,-0.20724836,0.16052808,-2.7721307,-0.027094403,-0.037339006,0.053486362,-0.0031243542,0.015916303,0.0031669622,0.05772029590115452,-0.2488872465135269,89.3434890417367
1729571879942592,-0.20795828,0.16006058,-2.7718863,-0.027115913,-0.03720864,0.05350009,-0.002688728,0.016295817,0.0017159617,0.054846678151794344,-0.248543919551298,89.34107093861488
1729571879958592,-0.2093438,0.15914167,-2.77138,-0.027137496,-0.036998015,0.053459264,-0.0013489042,0.013164011,-0.0025515908,0.0475872464558376,-0.24805136757358653,89.33608808889518
1729571879966592,-0.21001971,0.1586899,-2.7711186,-0.027124906,-0.036873665,0.053417735,0.0015737022,0.015543773,-0.0051911916,0.04331124646851677,-0.24769272592516878,89.33363579717509
1729571879974592,-0.2106847,0.1582431,-2.770852,-0.027112374,-0.036771804,0.05335672,0.0015664845,0.012732576,-0.0076270658,0.03872283356289162,-0.2474245851364945,89.33121773363587
1729571879982592,-0.21133576,0.15781508,-2.7705808,-0.027075062,-0.036657795,0.0532901,0.0046640635,0.014251097,-0.008327421,0.033809205933300605,-0.24717111872432215,89.32881332974
1729571879990592,-0.21197623,0.1573915,-2.7703304,-0.02702719,-0.03653325,0.053190768,0.00598398,0.015567987,-0.012416392,0.028757972831693717,-0.24714080947788525,89.32556878270931
1729571880006592,-0.21322621,0.15655755,-2.7698145,-0.026924571,-0.03625025,0.05299164,0.006413669,0.017687678,-0.012445495,0.01819558016676985,-0.24753552338452425,89.3192502719566
1729571880014592,-0.21383612,0.15614703,-2.7695491,-0.026851417,-0.03611805,0.052896615,0.009144191,0.016524922,-0.011878087,0.012836273172241586,-0.24783346649054908,89.31602617398768
1729571880022592,-0.21443613,0.1557405,-2.7692792,-0.0267675,-0.035993464,0.052782755,0.010489718,0.0155731095,-0.014232471,0.007489119447253576,-0.2483307676206595,89.31282252444748
1729571880030592,-0.21502636,0.15533799,-2.769005,-0.026669502,-0.035850108,0.052662756,0.012249685,0.017919578,-0.01499988,0.002203023557556903,-0.24898444422445937,89.30976234066932
1729571880046592,-0.21519953,0.15426627,-2.7698112,-0.026090365,-0.035847478,0.052139565,0.036196083,0.00016437842,-0.032699432,-0.008813082400751595,-0.25042034505115074,89.30488165546555
1729571880054592,-0.21528722,0.15374291,-2.7701926,-0.02578639,-0.035831574,0.051881753,0.037996795,0.001987908,-0.032226555,-0.01447010861512304,-0.2511378419518137,89.30309201205426
1729571880062592,-0.21537639,0.1532249,-2.7705534,-0.025474204,-0.035809666,0.05163496,0.039023347,0.0027385538,-0.030849127,-0.02025812350643936,-0.2520192916973616,89.30101539442705
1729571880070592,-0.21546686,0.15271205,-2.7708936,-0.025169106,-0.035789113,0.05141681,0.038137194,0.002569053,-0.027268657,-0.02608216070388242,-0.25321952234703354,89.29899682923188
1729571880086592,-0.21565105,0.15170139,-2.771514,-0.02454014,-0.035737846,0.05106791,0.039310426,0.003204215,-0.021806218,-0.03782052038933726,-0.2568903585108258,89.29533874814665
1729571880094592,-0.21574433,0.15120341,-2.771795,-0.02422264,-0.035694946,0.050954867,0.039687376,0.005362555,-0.014130491,-0.043765523982352984,-0.2593926077014863,89.29357288189917
1729571880102592,-0.21583824,0.15071021,-2.772057,-0.023906834,-0.035654474,0.050849948,0.039475735,0.0050589438,-0.013114884,-0.04956604086814139,-0.2624082208455799,89.29179331341209
1729571880110592,-0.21593255,0.15022175,-2.7723236,-0.02357039,-0.035587344,0.050762616,0.0420555,0.008391216,-0.010916497,-0.05515074997845619,-0.26586179862384945,89.29017757324307
1729571880126592,-0.21613903,0.14923961,-2.7728,-0.022916138,-0.035468426,0.05066779,0.040890764,0.0074324193,-0.0059267036,-0.065392970050103,-0.27379093577003594,89.28715785374573
1729571880134592,-0.21625076,0.14874586,-2.7730105,-0.022593556,-0.03542044,0.050652325,0.040322773,0.0059981826,-0.0019329599,-0.06977524332785914,-0.2779920844235114,89.28700055727737
1729571880142592,-0.21636201,0.14825673,-2.7732031,-0.022259729,-0.035360582,0.05067571,0.04172837,0.007482245,0.0029229557,-0.07366642780537301,-0.2824461414040696,89.28700708953785
1729571880158592,-0.21658255,0.14729221,-2.7735357,-0.021595065,-0.035201713,0.050747864,0.041541524,0.009929295,0.0045096967,-0.08003454620750831,-0.2915224294161798,89.28734460963912
1729571880166592,-0.21724053,0.14653553,-2.7736812,-0.021419125,-0.035275526,0.050818052,0.021992482,-0.009226613,0.008773524,-0.08266097985221788,-0.2958882583180111,89.28766206562776
1729571880174592,-0.2178844,0.1457888,-2.77381,-0.02123954,-0.0353501,0.05089687,0.022448132,-0.009321608,0.009852461,-0.08474921100828062,-0.3000723927403788,89.28760021570946
1729571880182592,-0.21851452,0.14505187,-2.773922,-0.02105837,-0.03539928,0.05100841,0.02264627,-0.00614766,0.013942364,-0.08623625920676699,-0.3042182418113194,89.2875863438864
1729571880198592,-0.21974438,0.14360826,-2.7740972,-0.020698577,-0.03546449,0.05127974,0.022487015,-0.0040757004,0.016957987,-0.0878246373215525,-0.3128474838546332,89.28801956668556
1729571880206592,-0.22033985,0.14290048,-2.7741613,-0.020508602,-0.03547863,0.051407512,0.023746861,-0.0017671845,0.015971716,-0.0880694088903907,-0.3177224451012837,89.28825476928115
1729571880214592,-0.22092268,0.14220183,-2.7742097,-0.020312523,-0.035483103,0.051539965,0.024509847,-0.0005592592,0.016556587,-0.08821960244819342,-0.3230285978635745,89.28855502463806
1729571880222592,-0.22149317,0.14151216,-2.774243,-0.02011281,-0.035469245,0.051677145,0.0249641,0.0017322599,0.017147511,-0.08844625009475575,-0.32865713828768195,89.2889576844816
1729571880230592,-0.2220517,0.1408314,-2.7742865,-0.019925268,-0.03543939,0.05182709,0.023442784,0.0037318093,0.018743332,-0.0887053338392679,-0.33471137534196654,89.28945241969308
1729571880246592,-0.2231337,0.1394962,-2.7743282,-0.019487627,-0.035334162,0.05211507,0.027352594,0.0065767667,0.01799874,-0.08935380095944062,-0.3475435005408081,89.29055812551744
1729571880254592,-0.22365758,0.13884155,-2.7743273,-0.019265862,-0.035256118,0.0522729,0.027720582,0.009755604,0.01972867,-0.08956707197288369,-0.35410407358551543,89.2911757569052
1729571880262592,-0.2241629,0.13817869,-2.7743123,-0.019028759,-0.035203967,0.05244658,0.029637942,0.006518792,0.021710059,-0.0897663224642568,-0.36058498194153626,89.29179005879087
1729571880278592,-0.22514139,0.13687846,-2.774241,-0.01854287,-0.035019714,0.05270958,0.030367984,0.011515803,0.016437378,-0.09057258940146716,-0.37344254325538595,89.29500980856815
1729571880286592,-0.22605099,0.13605978,-2.7742882,-0.018435681,-0.035028543,0.052741453,0.013398704,-0.0011036173,0.003984198,-0.09134290488323438,-0.3802502279959997,89.29674083239651
1729571880294592,-0.22694045,0.13525277,-2.7743216,-0.018355038,-0.03501312,0.052735724,0.010080402,0.0019278376,-0.000716187,-0.09205754622058612,-0.38703083685409223,89.29801767528885
1729571880302592,-0.22781044,0.13445725,-2.7743416,-0.018267823,-0.034996558,0.05275984,0.010901828,0.00207033,0.003014691,-0.09284361926033191,-0.3938819158037423,89.29934911704665
1729571880310592,-0.22866143,0.13367292,-2.7743483,-0.018183192,-0.03496294,0.05280447,0.010578892,0.0042021275,0.0055786218,-0.09377399024225287,-0.40072320842917747,89.30067027453597
1729571880326592,-0.23030809,0.13213705,-2.7743227,-0.017938226,-0.03488413,0.052893333,0.01531036,0.0049257646,0.0055539417,-0.09629978410550463,-0.4142482855609103,89.30304289996981
1729571880334592,-0.2311044,0.13138527,-2.7742915,-0.0178071,-0.034800846,0.05295554,0.016390812,0.010410323,0.0077760774,-0.09794225251298044,-0.4207887922359506,89.30412501851903
1729571880342592,-0.23188949,0.1306406,-2.7742481,-0.017678654,-0.034713034,0.05301915,0.016055768,0.010976567,0.0079511665,-0.09984539831779321,-0.42736313611615956,89.30518323428866
1729571880358592,-0.23340863,0.12918289,-2.7741754,-0.017414395,-0.03449827,0.053126447,0.01651619,0.013422686,0.0067059877,-0.1042311397123202,-0.44096742260410515,89.30806116267814
1729571880366592,-0.23414351,0.1284697,-2.774121,-0.017269462,-0.034352366,0.053197954,0.018116552,0.01823809,0.008938368,-0.10665385809060023,-0.4479337047802895,89.30953592613449
1729571880374592,-0.23486233,0.12776683,-2.774055,-0.017125102,-0.034213137,0.05323614,0.018045073,0.017403625,0.004773494,-0.10946659370731186,-0.454863253473247,89.31104150934671
1729571880382592,-0.23556554,0.12707408,-2.7739775,-0.016978044,-0.034059558,0.053285494,0.018382212,0.019197352,0.0061690803,-0.11270167855660908,-0.461500488579076,89.31243102767182
1729571880390592,-0.23625343,0.12639134,-2.773889,-0.016815566,-0.033890486,0.053363778,0.020309815,0.021134036,0.009785406,-0.11640405139270008,-0.4676432717282109,89.31394348696183
1729571880406592,-0.23758423,0.12505566,-2.7737067,-0.016446795,-0.033505403,0.053491708,0.023048136,0.024067702,0.007995637,-0.12467068935549724,-0.47951139763890943,89.31691027733935
1729571880414592,-0.23795651,0.12450458,-2.7738385,-0.016171489,-0.03327059,0.053484503,0.0344133,0.02935156,-0.0009005889,-0.12916115608267686,-0.48557169790723703,89.31825882566464
1729571880422592,-0.23830234,0.1239596,-2.7739537,-0.0158686,-0.033067834,0.05352359,0.037861057,0.025344545,0.004885718,-0.1338391686029781,-0.4918183999317331,89.3200581534354
1729571880438592,-0.23897229,0.12288938,-2.7741356,-0.015250223,-0.03263901,0.053578597,0.038648605,0.026801366,0.003437977,-0.14368708640001457,-0.5045980069396929,89.32219480028115
1729571880446592,-0.23929645,0.12236417,-2.774203,-0.0149166295,-0.032376442,0.05364384,0.041699152,0.032821205,0.008155592,-0.14884946422995426,-0.5109321355537741,89.32308900282224
1729571880454592,-0.2396134,0.121845804,-2.774255,-0.014584783,-0.03210412,0.053728268,0.041480757,0.034040306,0.010553281,-0.15412997120608513,-0.517495464619894,89.32386717782175
1729571880462592,-0.23992313,0.121334344,-2.774292,-0.014240959,-0.03181129,0.053785045,0.04297809,0.03660377,0.007097143,-0.15940039936073502,-0.5240606148217204,89.32473731756147
1729571880478592,-0.24052086,0.12033215,-2.7743726,-0.013532698,-0.031203656,0.053866044,0.044266284,0.03797712,0.005062436,-0.16962360912226004,-0.536870223140517,89.32649829404585
1729571880486592,-0.24079438,0.1198408,-2.7743912,-0.013158972,-0.03086041,0.05391322,0.04671572,0.042905796,0.005897134,-0.17448664624141422,-0.5428450896192024,89.32726269467135
1729571880494592,-0.24106093,0.11935664,-2.774396,-0.0127817355,-0.030505827,0.053950768,0.047154605,0.044322804,0.0046934,-0.17928241822260743,-0.5484584790114743,89.3278017057474
1729571880502592,-0.2413205,0.11887966,-2.774387,-0.012392382,-0.030145044,0.053969223,0.04866917,0.045097895,0.002306886,-0.1837237906628054,-0.5537553222961895,89.32823838738007
1729571880518592,-0.24181864,0.11794713,-2.77433,-0.011580123,-0.029418826,0.054044455,0.050766215,0.045388587,0.004702015,-0.19180211542768627,-0.5632207066124156,89.32903304705977
1729571880526592,-0.24205703,0.11749162,-2.774309,-0.011146976,-0.02901996,0.05407096,0.054143365,0.04985835,0.0033131798,-0.19536351639566285,-0.5675860503710701,89.32933312956368
1729571880534592,-0.24228835,0.11704331,-2.7742748,-0.010728397,-0.028633514,0.05410917,0.052322283,0.048305605,0.004776288,-0.19852806210076637,-0.571610618049123,89.32962983742563
1729571880542592,-0.2425491,0.11652818,-2.7745898,-0.0102962935,-0.028198425,0.05407525,0.05401298,0.05438621,-0.0042403117,-0.20120182009119691,-0.5753824587991133,89.32990597559703
1729571880558592,-0.24304599,0.11552724,-2.775156,-0.009408579,-0.027287884,0.053997144,0.05548214,0.056908812,-0.0048815273,-0.20565743335718178,-0.5822445877506612,89.33029115583547
1729571880566592,-0.24328017,0.115051895,-2.7754085,-0.008939701,-0.02680661,0.053955734,0.058609758,0.060159244,-0.0051762904,-0.2074484936593041,-0.5852584584239447,89.33052305914664
1729571880574592,-0.24350621,0.11458607,-2.775641,-0.008478803,-0.026329735,0.053939015,0.05761231,0.059609298,-0.0020898879,-0.20900994692263056,-0.5881846008511348,89.32980534172461
1729571880582592,-0.24372421,0.1141297,-2.775854,-0.008020754,-0.025843307,0.053946752,0.05725608,0.060803488,0.00096717844,-0.21033286861487166,-0.5910317665477169,89.32897167184565
1729571880598592,-0.24413675,0.113245316,-2.776271,-0.0071127797,-0.024826223,0.054017786,0.056748394,0.063567765,0.0044396147,-0.2127955755640342,-0.5956830012623704,89.32716776831647
1729571880606592,-0.24433139,0.11281716,-2.7764509,-0.0066499016,-0.024322541,0.05407316,0.057859752,0.0629602,0.006921589,-0.21398269284589821,-0.5974339724761571,89.32630336092609
1729571880614592,-0.24451832,0.11239825,-2.7766118,-0.0061683715,-0.023807807,0.0541633,0.06019126,0.06434181,0.011267605,-0.2151637151976103,-0.5986864732864663,89.32541862337953
1729571880622592,-0.24469754,0.11198855,-2.7767541,-0.0056954985,-0.023283653,0.05428985,0.05910912,0.065519236,0.01581898,-0.21628677252889836,-0.5994223596698749,89.32446229039465
1729571880638592,-0.24502864,0.111189745,-2.776985,-0.00475187,-0.02225538,0.05451948,0.058976784,0.06426708,0.01435168,-0.21766029170463788,-0.6000870055057915,89.32241957021904
1729571880646592,-0.24518311,0.11080396,-2.7770998,-0.004266305,-0.021711128,0.054643113,0.06069563,0.06803148,0.015454366,-0.2176539281199091,-0.6000675810900119,89.32122068804384
1729571880654592,-0.24533024,0.11042723,-2.7771974,-0.003788412,-0.021168685,0.05477231,0.0597366,0.0678054,0.0161496,-0.21715610139776043,-0.5998732835722305,89.319998022053
1729571880662592,-0.24616894,0.11023684,-2.777137,-0.0035358928,-0.020539721,0.054887246,0.031564906,0.07862038,0.014367047,-0.216349407812436,-0.5995388527880733,89.31880613235292
1729571880678592,-0.24777567,0.10987126,-2.7769797,-0.0030277409,-0.019306878,0.055097796,0.031759497,0.077052735,0.013159354,-0.2143000437356786,-0.5981089172767757,89.31516183867095
1729571880686592,-0.2485449,0.10969606,-2.7768836,-0.0027712083,-0.01869584,0.055200703,0.03206657,0.07637963,0.0128634265,-0.21330698024932468,-0.5970487395503564,89.31336203309185
1729571880694592,-0.24929212,0.109525815,-2.776776,-0.0025097486,-0.018104682,0.05527664,0.032682464,0.07389486,0.00949204,-0.21235934336297474,-0.5957359914533722,89.31156905850372
1729571880702592,-0.25000563,0.10935871,-2.7766578,-0.0022317471,-0.017517205,0.05537294,0.034750175,0.07343455,0.012037343,-0.21154851724130655,-0.5944104363752127,89.3096531025987
1729571880718592,-0.25137067,0.10903955,-2.7764423,-0.0016773916,-0.016330678,0.055611156,0.034647223,0.07415795,0.014888587,-0.21046563499675183,-0.5917695196392038,89.30492287596272
1729571880726592,-0.25202325,0.108887486,-2.7763176,-0.0013958237,-0.015748292,0.055721026,0.035195988,0.07279822,0.013733747,-0.21021903290301705,-0.5903853188199364,89.30253906459801
1729571880734592,-0.25265646,0.10874041,-2.7761822,-0.0010970229,-0.015165281,0.05582241,0.037350092,0.07287645,0.012672971,-0.21009595529103273,-0.5887150357039829,89.30021335184573
1729571880742592,-0.25327066,0.10859827,-2.7760363,-0.0007967603,-0.014592051,0.055892386,0.03753282,0.071653746,0.008746982,-0.21030015401975635,-0.5868651310323372,89.29789784404565
1729571880750592,-0.25386629,0.10846112,-2.77588,-0.0004946324,-0.0140072685,0.05595496,0.037765987,0.07309776,0.007821713,-0.21074867715144371,-0.5847418450794524,89.29566771306779
1729571880766592,-0.25500366,0.1082022,-2.7755668,0.00012456982,-0.012822088,0.056075376,0.038700137,0.074073784,0.0075260173,-0.2125067786740634,-0.5796781723226951,89.29120075185703
1729571880774592,-0.25556016,0.10806685,-2.7754087,0.00041691086,-0.0122635355,0.056149807,0.036542628,0.06981904,0.0093039125,-0.2135932446149224,-0.5768182051225127,89.28902893468042
1729571880782592,-0.25609958,0.10793657,-2.775241,0.00072875863,-0.011710256,0.056213804,0.038980972,0.069159895,0.007999595,-0.21493387873825942,-0.5735519828172855,89.28797058059773
1729571880798592,-0.25648987,0.10741794,-2.7745433,0.00176162,-0.010897497,0.05642615,0.064553834,0.050797474,0.013271579,-0.21883577008534724,-0.5658890388706725,89.28489067748946
1729571880806592,-0.25666964,0.107168384,-2.7741868,0.002267262,-0.010519619,0.056499112,0.063205235,0.0472347,0.009120442,-0.22110326131724217,-0.5619967630845727,89.28293068492643
1729571880814592,-0.2568394,0.10692517,-2.7738256,0.0027748144,-0.010114493,0.056561533,0.06344405,0.05064078,0.00780262,-0.22340739640041601,-0.5585604800302953,89.28102179145083
1729571880822592,-0.25699916,0.106688276,-2.77346,0.003297791,-0.00972083,0.056590132,0.06537206,0.04920782,0.0035748815,-0.22594938094682582,-0.5554431517817332,89.27917441271386
1729571880838592,-0.2572892,0.10623309,-2.7727742,0.0043240646,-0.008916925,0.056586318,0.0641421,0.050244093,-0.00023841856,-0.2313970779173781,-0.5500026529574757,89.27556823524053
1729571880846592,-0.2574308,0.1060145,-2.7724247,0.0048398436,-0.008507629,0.056523032,0.06447238,0.05116197,-0.007910654,-0.23401799269952642,-0.5475927129315686,89.27377191383657
1729571880854592,-0.25756267,0.105801895,-2.772071,0.0053426134,-0.0081201475,0.05643352,0.06284623,0.048435174,-0.0111889085,-0.2363647412099393,-0.5455615997303178,89.27229668795133
1729571880862592,-0.25768495,0.10559508,-2.7717135,0.0058463058,-0.0077324854,0.056334004,0.06296153,0.04845776,-0.012439675,-0.23832977157060373,-0.5439531242011385,89.27085215448811
1729571880870592,-0.25779778,0.10539396,-2.7713525,0.006359238,-0.007345099,0.05621754,0.06411655,0.0484233,-0.014557968,-0.2399945161915958,-0.5426391074856377,89.26948949413473
1729571880886592,-0.25799534,0.10500877,-2.7706513,0.007370264,-0.0065444442,0.05588829,0.0631891,0.05004092,-0.020578036,-0.24254910867200866,-0.5404979609763803,89.26710234402599
1729571880894592,-0.25808042,0.1048246,-2.7703109,0.007852036,-0.0061471206,0.055726852,0.060221467,0.04966545,-0.020179896,-0.24353066066764123,-0.539509567361096,89.26606752184925
1729571880902592,-0.2581567,0.104646005,-2.769967,0.008327666,-0.005734473,0.055536754,0.059453767,0.05158095,-0.023762228,-0.2445465924555196,-0.5385971097545885,89.26509758422908
1729571880918592,-0.2579249,0.10353416,-2.769941,0.009369472,-0.00538243,0.055089094,0.06511289,0.022002699,-0.02797879,-0.24610512536675275,-0.5364457189349534,89.26285723683138
1729571880926592,-0.25780305,0.10299738,-2.76991,0.009881114,-0.00519932,0.05486939,0.063955195,0.022888707,-0.027462838,-0.2464115552709707,-0.5348935439714871,89.26154584791854
1729571880934592,-0.25767702,0.10247291,-2.769867,0.01040927,-0.0050165323,0.054676026,0.066019595,0.022848485,-0.024170613,-0.2463192057788923,-0.5332650600753768,89.26031313592809
1729571880942592,-0.25754678,0.10196056,-2.7698123,0.010935374,-0.004814642,0.054485116,0.06576289,0.025236279,-0.023863742,-0.24583813339517177,-0.5315438848191111,89.2590701358871
1729571880958592,-0.25727364,0.1009717,-2.7697265,0.011986123,-0.004375447,0.054129474,0.06567186,0.027449684,-0.022227641,-0.24362885386394698,-0.5288833588586791,89.25679227317924
1729571880966592,-0.25713095,0.10049475,-2.7696662,0.012479796,-0.004149955,0.053975053,0.06170908,0.028186476,-0.019302592,-0.2417349146873879,-0.5279232495640216,89.25580184850772
1729571880974592,-0.2569843,0.100029156,-2.769595,0.012985215,-0.0039215353,0.053835448,0.06317731,0.028552486,-0.017450657,-0.2394551784828996,-0.5272287819840955,89.25483523986367
1729571880982592,-0.2568185,0.099569395,-2.7695124,0.013503206,-0.0036841703,0.053686123,0.06474892,0.029670626,-0.018665567,-0.23678526745481032,-0.5267904040334263,89.25394052300763
1729571880990592,-0.25664893,0.09912072,-2.7694194,0.01402174,-0.0034439245,0.053559072,0.06481679,0.030030727,-0.015881378,-0.23372298255103746,-0.526732344971792,89.2533735080147
1729571881006592,-0.2562987,0.09825571,-2.7692323,0.015032626,-0.0029816176,0.0533148,0.063180335,0.02889418,-0.015266937,-0.22602913502694652,-0.5276010430654025,89.25264248634545
1729571881014592,-0.25611806,0.09783891,-2.7691376,0.015530367,-0.002731062,0.05318867,0.0622177,0.031319447,-0.01576636,-0.2214490667867051,-0.5285482384343925,89.25229402789847
1729571881022592,-0.25593385,0.097432405,-2.7690327,0.016017823,-0.0024799965,0.05307665,0.06093189,0.031383183,-0.014002434,-0.21645734333044464,-0.529778792183067,89.2520787078126
1729571881030592,-0.25574616,0.09703605,-2.7689178,0.016503433,-0.0022199485,0.05295568,0.060701273,0.032506008,-0.015121418,-0.21104531915624264,-0.531319065875379,89.25193838277579
1729571881046592,-0.2547774,0.09666814,-2.769048,0.017574966,-0.0013279808,0.052499548,0.06697082,0.05574798,-0.028508248,-0.19945075297489048,-0.5352829350958431,89.25324267170177
1729571881054592,-0.25431255,0.09649286,-2.7690935,0.018086117,-0.0008724096,0.052261584,0.06389385,0.056946393,-0.02974551,-0.1933905976888349,-0.537528885098208,89.25470768726298
1729571881062592,-0.2538513,0.09632459,-2.7691267,0.018560696,-0.00040622673,0.05203475,0.05932245,0.058272857,-0.028354114,-0.18729543199021823,-0.539661118903815,89.25637764561802
1729571881070592,-0.25339353,0.09616327,-2.7691762,0.019041054,4.9403516e-05,0.051835153,0.06004469,0.056953777,-0.024949664,-0.18128302802140525,-0.5417624561417177,89.25815688377888
1729571881086592,-0.25248775,0.095861524,-2.7692375,0.019982474,0.0009722993,0.051473007,0.058838744,0.057680983,-0.022634163,-0.16903748862736634,-0.5454677870989122,89.26197494516171
1729571881094592,-0.25203958,0.095721066,-2.7692497,0.020429606,0.0014323819,0.05132256,0.055891458,0.057510324,-0.018805731,-0.16291127655420623,-0.5471936622620446,89.26388404361632
1729571881102592,-0.25159445,0.09558752,-2.7692497,0.020870589,0.0018889201,0.051190633,0.055122886,0.057067268,-0.016490929,-0.15676126081219413,-0.5489038491109636,89.26592974185277
1729571881110592,-0.25115225,0.09546082,-2.7692378,0.02130037,0.002346154,0.05108119,0.053722642,0.057154246,-0.013680196,-0.15040557097347854,-0.5504604034612864,89.26797202625582
1729571881126592,-0.2502792,0.09524201,-2.7692087,0.022092829,0.0032948544,0.050924134,0.049528662,0.05929377,-0.009816139,-0.1369447285281782,-0.5528772818794208,89.27218995613224
1729571881134592,-0.24984689,0.095142834,-2.769191,0.02248325,0.0037652499,0.05086967,0.048802696,0.058799427,-0.0068079676,-0.12962775670050725,-0.5537506796851598,89.274287012973
1729571881142592,-0.24941719,0.09505052,-2.7691615,0.02287879,0.004252875,0.05080867,0.049442515,0.060953166,-0.0076247375,-0.12213336387001854,-0.5542385274065861,89.27643525185427
1729571881150592,-0.24899001,0.09496507,-2.7691205,0.02325399,0.0047344193,0.050764427,0.046900004,0.060193006,-0.0055306586,-0.11454369597520374,-0.5543483491809614,89.27873396575374
1729571881166592,-0.24795361,0.09460524,-2.7689755,0.024053328,0.005634464,0.050672382,0.049958587,0.05625278,-0.005752779,-0.09957792053284907,-0.553848601424316,89.28319470739704
1729571881174592,-0.2473478,0.09433616,-2.768873,0.024510551,0.006062111,0.050611634,0.057152934,0.053455874,-0.007593538,-0.0924117331186942,-0.5530753132274163,89.28487863727959
1729571881182592,-0.24674772,0.09407889,-2.7687614,0.024962781,0.0064731534,0.050575737,0.056528717,0.051380306,-0.004487112,-0.08552789809564472,-0.5521028198157791,89.28651471443091
1729571881190592,-0.24615532,0.093823396,-2.7686708,0.025392884,0.0068886993,0.05051551,0.05376292,0.051943235,-0.0075283456,-0.07859885664286605,-0.5508093461923254,89.28819872851255
1729571881206592,-0.24498683,0.093346804,-2.7684615,0.026216522,0.0077069975,0.05039058,0.05147734,0.051143635,-0.007808208,-0.06474545753401066,-0.5478794872590202,89.29329161958735
1729571881214592,-0.24441063,0.09312529,-2.7683437,0.026603509,0.00812757,0.05031221,0.048373356,0.052571584,-0.0097961165,-0.057746841046074734,-0.5463434784421601,89.29586715355511
1729571881222592,-0.24383967,0.09291473,-2.768217,0.026959356,0.00854131,0.050248377,0.044480894,0.051717505,-0.007979106,-0.05055116123860666,-0.5446570389749769,89.29837417681595
1729571881238592,-0.24271353,0.09252539,-2.7679384,0.027627539,0.009357018,0.050093677,0.04176143,0.05098176,-0.009668758,-0.036034246687217095,-0.5411888013560404,89.30351495091838
1729571881246592,-0.24215798,0.09234634,-2.767819,0.027967,0.009780446,0.050024517,0.042432684,0.052928455,-0.008645002,-0.02854006486403595,-0.5394050821799692,89.30593672116461
1729571881254592,-0.24160725,0.09217743,-2.767691,0.028284118,0.0101909265,0.04994947,0.039639648,0.05131005,-0.009380747,-0.020929847900049384,-0.5374804846748537,89.3083210488624
1729571881262592,-0.2410582,0.092007086,-2.7675543,0.028596763,0.010582542,0.04985484,0.039080624,0.048951942,-0.011828727,-0.013153010808050746,-0.5355969774280692,89.31069150899046
1729571881270592,-0.24051386,0.09184655,-2.76741,0.02889277,0.010973478,0.049779885,0.03700098,0.048866957,-0.009369571,-0.005310702507443514,-0.5337785738254567,89.31376907757385
1729571881286592,-0.23946553,0.09129238,-2.7674208,0.029469954,0.0116084395,0.049573723,0.036073964,0.039685108,-0.01288508,0.010596504058503153,-0.5297482684704762,89.31974671008032
1729571881294592,-0.2389599,0.090903744,-2.7675676,0.029759137,0.011853014,0.04945971,0.03614789,0.030571826,-0.014251563,0.018686615793538995,-0.5275282024134232,89.32113710086865
1729571881302592,-0.23845732,0.09052941,-2.7676988,0.030026045,0.012114011,0.049342506,0.033363465,0.032624576,-0.0146506345,0.02682216063227653,-0.5252992255114307,89.32238052436219
1729571881318592,-0.2374614,0.08982246,-2.7679749,0.030514617,0.012626989,0.049078062,0.030535737,0.032061126,-0.016527716,0.04285974731774242,-0.5214198897505004,89.32465909459461
1729571881326592,-0.23697515,0.089490026,-2.7680902,0.030727383,0.01289208,0.048973206,0.026595777,0.033136338,-0.013106967,0.05085605945330331,-0.5199732172891235,89.32575209525358
1729571881334592,-0.23649193,0.08917063,-2.7681904,0.030932093,0.013145659,0.04888477,0.025588784,0.031697445,-0.011054332,0.059054220315186215,-0.518808728911313,89.32692376109611
1729571881342592,-0.23601171,0.08886394,-2.768276,0.031121243,0.01340309,0.048828047,0.023643717,0.032178823,-0.007090624,0.06733247661632849,-0.5178685789329543,89.32804757634806
1729571881358592,-0.23506053,0.0882876,-2.7684042,0.031456858,0.013921398,0.048800755,0.020975944,0.03239425,-0.0017057172,0.08387138566215578,-0.5167952349857616,89.33006270612242
1729571881366592,-0.2345895,0.08801747,-2.7684782,0.031631544,0.014182984,0.048801653,0.021835787,0.03269827,0.00011222436,0.09192002181858847,-0.5166754349989366,89.33097471078861
1729571881374592,-0.23412147,0.08775896,-2.7685375,0.031768452,0.014431191,0.048805904,0.017113518,0.031025846,0.0005313195,0.09978338204835675,-0.516825171642065,89.33174324538435
1729571881382592,-0.23365659,0.08751178,-2.7685826,0.03189512,0.014688962,0.04886235,0.015833415,0.032221433,0.0070556994,0.10750473658103697,-0.5172256611486082,89.33252190550104
1729571881398592,-0.23270406,0.08703991,-2.7686307,0.03213927,0.0152157955,0.04897537,0.015259487,0.03292708,0.0070638484,0.12243664687533264,-0.5189668969654386,89.33390160631424
1729571881406592,-0.23221698,0.08681499,-2.7686346,0.032235537,0.015485604,0.04901426,0.012033152,0.0337261,0.004861038,0.12940308168789702,-0.5201168706223482,89.33420550195935
1729571881414592,-0.23198113,0.0863542,-2.768793,0.032290205,0.015615399,0.04899469,0.006833579,0.016224338,-0.0024461187,0.13628593361663402,-0.521277677190243,89.33442390354438
1729571881422592,-0.23174219,0.08590882,-2.768935,0.032357156,0.015762689,0.048958242,0.008368865,0.018411199,-0.00455603,0.14293355596772875,-0.52202822869369,89.33264778323438
1729571881438592,-0.23125559,0.08506309,-2.769229,0.032461017,0.016075186,0.04894159,0.006491318,0.019531114,-0.001040753,0.15545763593108142,-0.5233091559030624,89.32892479125361
1729571881446592,-0.23100837,0.08466205,-2.7693512,0.032498688,0.016227134,0.048957996,0.004708767,0.018993393,0.0020507723,0.1614544794165774,-0.5240699533616114,89.32683448963301
1729571881454592,-0.23075882,0.08427511,-2.7694576,0.032510657,0.016388426,0.0489935,0.0014961696,0.020161502,0.0044382177,0.16715847824367905,-0.5247300013964014,89.32478159182216
1729571881462592,-0.23050717,0.08390209,-2.769548,0.032519955,0.016570311,0.04904975,0.0011622906,0.022735678,0.0070310193,0.17279641530333265,-0.5256033418007523,89.32198088868459
1729571881478592,-0.23000412,0.08317609,-2.7695825,0.032996014,0.016323412,0.06611023,0.029753659,-0.015431199,1.06628,0.29918937447139754,-0.6433945031165198,89.29651741793423
1729571881486592,-0.22974621,0.08282842,-2.7694612,0.03329452,0.01609215,0.08211477,0.03731344,-0.028907785,2.0005674,0.49937999523215754,-0.8374159689617393,89.27049625716351
1729571881494592,-0.22948486,0.082491,-2.7691853,0.033414442,0.016037643,0.1009261,0.014990102,-0.0068133227,2.351416,0.8147610055789622,-1.1375890649133036,89.23326365271244
1729571881502592,-0.22922195,0.082165554,-2.7687356,0.0332635,0.016312104,0.12197261,-0.018867664,0.034307595,2.6308138,1.2508384538881336,-1.5370726544679807,89.18265438867019
1729571881518592,-0.22870338,0.081562474,-2.767245,0.0316872,0.018179454,0.17140362,-0.09851879,0.11670938,3.0894375,2.4797246395265717,-2.581466462033656,89.03271599182875
1729571881526592,-0.22845514,0.081291154,-2.7661543,0.030197788,0.019731946,0.20198494,-0.1861765,0.19406153,3.8226655,3.2569936787546663,-3.1984165253900403,88.92971143504205
1729571881534592,-0.22821932,0.0810436,-2.7647877,0.028265417,0.021588186,0.23715603,-0.2415464,0.23202993,4.396386,4.128000310725364,-3.8590472042423714,88.8060763241304
1729571881542592,-0.22840375,0.080770634,-2.7639043,0.025854534,0.023651918,0.27673596,-0.30136037,0.25796655,4.9474907,5.0799519945825615,-4.549615210536356,88.66081440797468
1729571881550592,-0.22859678,0.08052577,-2.7626798,0.023151811,0.025893742,0.32068068,-0.3378403,0.28022796,5.493089,6.100058356139429,-5.2580720377656265,88.49286864161576
1729571881566592,-0.22901788,0.0801234,-2.759,0.01712459,0.030639485,0.41978058,-0.37670133,0.29660887,6.1937437,8.300614031126372,-6.697599338050061,88.09068157671712
1729571881574592,-0.2292493,0.07996611,-2.756491,0.013934562,0.03304103,0.4741501,-0.39875343,0.3001932,6.7961884,9.464367805825164,-7.418365896416405,87.85673395773541
1729571881582592,-0.22949605,0.07983798,-2.7535064,0.010665667,0.035465747,0.53088534,-0.40861183,0.30308962,7.0919056,10.664051510158528,-8.133411071247611,87.60178908144978
1729571881598592,-0.23004043,0.079670295,-2.7460532,0.003748734,0.040567026,0.6491638,-0.43230832,0.3188299,7.392402,13.17068182198495,-9.523354755665352,87.0326352008778
1729571881606592,-0.23034081,0.079631574,-2.7415926,7.3517185e-05,0.043237414,0.70998174,-0.45940208,0.33379856,7.6022444,14.481225680892999,-10.18679911947539,86.72120150674753
1729571881614592,-0.23068477,0.079628445,-2.736614,-0.003783885,0.046032287,0.7716475,-0.48217523,0.3493591,7.7082214,15.833344099884389,-10.822656478582747,86.3941980489087
1729571881622592,-0.23105104,0.079656795,-2.7311115,-0.007849177,0.048931662,0.8339872,-0.50816154,0.36242184,7.7924576,17.22975793027103,-11.426605857671799,86.05333471718244
1729571881638592,-0.2318585,0.07981046,-2.7185194,-0.016629793,0.055024154,0.96037203,-0.5487884,0.38078076,7.899053,20.166326019733386,-12.524182346360414,85.3387069648605
1729571881646592,-0.23230372,0.07993688,-2.711423,-0.021338698,0.058204144,1.0243075,-0.5886131,0.3974987,7.991932,21.709833008218414,-13.01179460681436,84.96946623156293
1729571881654592,-0.23277916,0.080097035,-2.7037885,-0.026265167,0.061474893,1.0887063,-0.6158086,0.4088436,8.049846,23.304334128679404,-13.455804591699946,84.59549907061498
1729571881662592,-0.2320014,0.079439156,-2.695779,-0.03051024,0.06419983,1.1536084,-0.53063405,0.3406168,8.112773,24.949802046870566,-13.855175574850668,84.21899633034504
1729571881678592,-0.23061734,0.07829658,-2.6781623,-0.03969818,0.069840215,1.2846661,-0.5742462,0.3525242,8.191101,28.39535623392063,-14.507328720423002,83.4421182852543
1729571881686592,-0.23001347,0.077810876,-2.6685221,-0.044659026,0.07272973,1.3508431,-0.62010574,0.36118922,8.272126,30.19346504987692,-14.767367128434252,83.05971079423631
1729571881694592,-0.22947015,0.07737305,-2.6583242,-0.049845472,0.07566173,1.417451,-0.6483057,0.36649963,8.325994,32.04146731870708,-14.983415215488128,82.68384027711453
1729571881702592,-0.22898854,0.07698269,-2.6475658,-0.055262018,0.07862037,1.4844768,-0.67706823,0.36983004,8.378222,33.938086094368394,-15.1557932414205,82.31705619984065
1729571881710592,-0.22856988,0.07663915,-2.636244,-0.060906842,0.08155471,1.5519181,-0.705603,0.366793,8.430167,35.88126004595851,-15.285145463256509,81.9619939668253
1729571881726592,-0.2279265,0.07608927,-2.6119273,-0.07288547,0.08735954,1.6880633,-0.7486641,0.36280182,8.509069,39.897316658241024,-15.421163205266534,81.29508260336011
1729571881734592,-0.22770411,0.07588134,-2.598926,-0.079190984,0.09021748,1.7567683,-0.7881894,0.3572423,8.588135,41.96576184731651,-15.432802873032575,80.9858831294498
1729571881742592,-0.22754946,0.075716935,-2.58535,-0.08570139,0.09303193,1.8258835,-0.8138008,0.35180616,8.639395,44.072253903152884,-15.410470023600523,80.69417999169362
1729571881758592,-0.22744772,0.07550935,-2.556464,-0.09931782,0.09849284,1.9652679,-0.8510267,0.3413069,8.711524,48.395601670478186,-15.268657019927128,80.15990879214222
1729571881766592,-0.22750264,0.07546708,-2.5411487,-0.1064098,0.101153694,2.0355463,-0.886498,0.33260694,8.784801,50.60972450806269,-15.153210402584365,79.92013362357147
1729571881774592,-0.2276295,0.07546461,-2.5252485,-0.113709845,0.10376728,2.106224,-0.91250515,0.32669863,8.83472,52.85672690279627,-15.01231994803171,79.70201834529685
1729571881782592,-0.22782946,0.07550114,-2.5087612,-0.12119958,0.10634014,2.1772852,-0.93621665,0.32160708,8.882642,55.134940859895394,-14.848121559515974,79.50619978015635
1729571881798592,-0.22528335,0.07640391,-2.4730146,-0.13472518,0.11158203,2.320736,-0.84535027,0.3276183,8.965671,59.777814602049034,-14.4513761902223,79.16971346810455
1729571881806592,-0.22416808,0.076898105,-2.4542696,-0.14179277,0.11412365,2.3930438,-0.88344884,0.31770205,9.038478,62.14054873802375,-14.223716266128195,79.02862429485461
1729571881814592,-0.22315827,0.07742,-2.4349396,-0.14908202,0.1165914,2.46572,-0.9111557,0.30846894,9.084522,64.53081439823062,-13.98187491330366,78.90923069795718
1729571881822592,-0.22226001,0.07798747,-2.415022,-0.15650861,0.11904145,2.5387757,-0.9283237,0.30625612,9.131968,66.94804138311274,-13.727601384249272,78.81197189752588
1729571881838592,-0.2207789,0.0792019,-2.3734114,-0.17193972,0.12370463,2.6860094,-0.9644441,0.29144853,9.202107,71.85454296232496,-13.138411693995812,78.62854068614678
1729571881846592,-0.22019698,0.079847924,-2.351743,-0.17996621,0.12595539,2.7602274,-1.0033119,0.2813451,9.277254,74.34334461829728,-12.831645437686566,78.5725008197273
