timestamp,x,y,z,vx,vy,vz,ax,ay,az,roll,pitch,yaw
1729620008650828,-0.40921912,-0.38131997,-3.2802029,0.039710537,0.06334287,0.078108445,0.0,0.0,0.0,0.4330785895154073,-0.7349005871413762,90.96906340761565
1729620008658828,-0.40969154,-0.3814951,-3.2807293,0.03897494,0.06378353,0.078672945,-0.09194947,0.05508214,0.070562586,0.42786276207478274,-0.7318976192185869,90.97587395856846
1729620008666828,-0.41015002,-0.38164693,-3.2812173,0.038264345,0.06422181,0.0792573,-0.08882442,0.054785047,0.07304456,0.422419187853106,-0.7288524948214242,90.98280743506682
1729620008674828,-0.4105904,-0.38177356,-3.2816677,0.037552834,0.06466469,0.07985876,-0.088938974,0.055360604,0.075181946,0.41649830978477437,-0.7257914696730362,90.98966595104997
1729620008690828,-0.41143206,-0.38196033,-3.2825136,0.0362251,0.06559222,0.081119835,-0.0829834,0.057970636,0.07881736,0.40301444754912746,-0.7197247117876573,91.00205045380542
1729620008698828,-0.4118339,-0.38202122,-3.2828822,0.0355826,0.06606175,0.08175669,-0.080312595,0.058691014,0.07960665,0.39552054722665353,-0.716677247508054,91.00818475922189
1729620008706828,-0.4122236,-0.38206106,-3.2832153,0.034965158,0.06653755,0.08239482,-0.077180095,0.059475187,0.07976684,0.38770609777427834,-0.7137113269647422,91.01414831566917
1729620008714828,-0.4126013,-0.38208032,-3.2835138,0.03438384,0.06700423,0.08303578,-0.07266458,0.05833525,0.08011981,0.37953100300892223,-0.7107251296497272,91.02006387524106
1729620008730828,-0.413322,-0.38205874,-3.2840111,0.033234213,0.06794722,0.084269285,-0.07185177,0.058936417,0.07709395,0.3627585568935142,-0.7043187775400904,91.031601417451
1729620008738828,-0.41364905,-0.38203055,-3.284241,0.032720227,0.06840411,0.08485119,-0.06424822,0.05711149,0.072738156,0.35412209135998,-0.7009142592243905,91.0372437059492
1729620008746828,-0.4142161,-0.38200343,-3.285523,0.032049228,0.068821,0.085128866,-0.0838749,0.05211122,0.03470946,0.34546650153972863,-0.6976129509218916,91.043104718277
1729620008754828,-0.41476816,-0.38195765,-3.2867472,0.031393863,0.0692524,0.08540954,-0.08192053,0.053925436,0.035083853,0.33696743338681184,-0.6944822521116717,91.050024802639
1729620008770828,-0.41582856,-0.38181138,-3.2890284,0.030181088,0.07012826,0.08596257,-0.07579848,0.054741275,0.03456464,0.31924795153632857,-0.6886993820149315,91.06349590162871
1729620008778828,-0.41633758,-0.38171166,-3.2900882,0.029596377,0.07056369,0.08627766,-0.073088795,0.05442835,0.03938656,0.31012857360411833,-0.6860136971126998,91.07004021280194
1729620008786828,-0.41683295,-0.38159466,-3.2910953,0.029027794,0.07100602,0.08666362,-0.07107295,0.055291686,0.04824437,0.3007645058393529,-0.6832847349884466,91.07638626925363
1729620008794828,-0.41731495,-0.38146067,-3.2920508,0.028476954,0.07145411,0.08707792,-0.068855,0.056010667,0.05178805,0.29125858080210176,-0.6805340550151315,91.08250713841731
1729620008810828,-0.4182397,-0.381143,-3.2938566,0.027463784,0.07235372,0.0880574,-0.063323066,0.056225803,0.061217226,0.27203290871678687,-0.6745802217145732,91.09444120941276
1729620008818828,-0.41867954,-0.38097006,-3.2946851,0.026990399,0.07281695,0.08862036,-0.059173208,0.057904046,0.0703698,0.26228398361983646,-0.671297022153163,91.10018598385821
1729620008826828,-0.4191069,-0.38078108,-3.2954648,0.026530294,0.07326834,0.08924808,-0.057513125,0.056423243,0.07846578,0.25251176739454584,-0.6678162161311967,91.10612230146522
1729620008834828,-0.4195221,-0.38057634,-3.2961967,0.026094079,0.073737316,0.08991682,-0.05452684,0.058622096,0.08359178,0.2426476839115274,-0.6643335981831212,91.11189444248693
1729620008850828,-0.42031664,-0.38012046,-3.2975209,0.025282905,0.07468491,0.091340095,-0.050698403,0.05922466,0.08895481,0.22283299279023144,-0.6570261439756417,91.1231516654827
1729620008858828,-0.42069626,-0.37986988,-3.2981384,0.024928708,0.07514799,0.092097335,-0.044274606,0.05788449,0.09465496,0.21268743343255012,-0.6530605331135206,91.12857541757208
1729620008866828,-0.42106444,-0.3796046,-3.2987108,0.024559187,0.07562442,0.092881665,-0.046190105,0.05955435,0.09804125,0.20240833309941073,-0.6490555959077505,91.13382146501928
1729620008874828,-0.42083645,-0.37984666,-3.2997627,0.024391148,0.07589511,0.093541585,-0.021004815,0.03383588,0.08249003,0.19211605491521716,-0.6448814438877035,91.13889677228526
1729620008890828,-0.42043138,-0.38023117,-3.301699,0.024056895,0.076497145,0.094967455,-0.020890845,0.037627295,0.08911686,0.17178082338344972,-0.6362222505885468,91.14762592411164
1729620008898828,-0.42023265,-0.3803856,-3.3025858,0.023919765,0.07682094,0.09568989,-0.017141225,0.040474344,0.090304755,0.16185502668420446,-0.6321595332629177,91.15205222554387
1729620008906828,-0.42003605,-0.3805155,-3.3034203,0.023809353,0.077147104,0.09642808,-0.013801501,0.040770505,0.09227357,0.1521052494061981,-0.628142552114902,91.15630772147921
1729620008915170,-0.41984135,-0.38062134,-3.3042035,0.023704188,0.077484794,0.09717306,-0.012606683,0.040480714,0.08930426,0.1427240888532187,-0.6242563159024905,91.16033777869521
1729620008931170,-0.41945654,-0.38076335,-3.3056617,0.02356965,0.07812505,0.098722234,-0.008408679,0.040016133,0.09682355,0.1252670953746079,-0.616523768304603,91.16820645042526
1729620008939170,-0.41926593,-0.38080063,-3.306317,0.023510749,0.07845293,0.099538445,-0.00736257,0.04098471,0.10202638,0.11749483511716848,-0.612745442439468,91.17177196812779
1729620008947170,-0.41907626,-0.38081607,-3.3069243,0.023472607,0.07878061,0.10038574,-0.004767673,0.040959563,0.10591186,0.11051869275930953,-0.6091606166241734,91.17505044707725
1729620008955170,-0.41888,-0.38081145,-3.3074844,0.023462472,0.0791122,0.10126259,-0.0012668314,0.04144944,0.109606415,0.10442123354395848,-0.6057235042867408,91.1782060670424
1729620008971170,-0.41848913,-0.3807399,-3.3084664,0.023440266,0.07979872,0.10304491,-0.0013879034,0.042907424,0.111395024,0.09407486259093291,-0.5986819373663528,91.18349264681166
1729620008979170,-0.41829428,-0.38067377,-3.3089125,0.023445066,0.08015044,0.103953645,0.00060000457,0.04396494,0.113591544,0.08965147609199639,-0.5950537361126956,91.18586931455825
1729620008987170,-0.4180996,-0.38058805,-3.3093147,0.023456363,0.08049091,0.10485327,0.0014121177,0.042558644,0.11245347,0.08578639084121949,-0.5914421333546768,91.18802758974363
1729620008995170,-0.41857916,-0.38101447,-3.3098516,0.023188123,0.08062639,0.10563317,-0.03352994,0.01693517,0.097487114,0.08241727172079213,-0.5880340085912364,91.19003533919233
1729620009011170,-0.41949344,-0.381775,-3.3107905,0.022696955,0.08094569,0.10712288,-0.03069802,0.019956378,0.093107104,0.07765569464871777,-0.5813653690097723,91.19598466232424
1729620009019170,-0.41992867,-0.38211033,-3.311195,0.022482157,0.081136204,0.10786285,-0.026849795,0.023813916,0.09249616,0.07612675680654536,-0.5780571469631596,91.19869622203579
1729620009027170,-0.42034972,-0.38241675,-3.3115573,0.022268951,0.08131922,0.108615726,-0.026650725,0.022877006,0.09410921,0.0753208693377712,-0.5747693117152161,91.20117566287091
1729620009035170,-0.42078215,-0.3826758,-3.3118782,0.022045797,0.08154266,0.1093682,-0.027894273,0.027930362,0.094058916,0.07489255597957684,-0.5716458379648487,91.20344318638956
1729620009051170,-0.42160603,-0.38311204,-3.312445,0.021606937,0.081973195,0.110862724,-0.02742873,0.026908236,0.09340792,0.07462711720393383,-0.5666524031534561,91.20608630283465
1729620009059170,-0.42199835,-0.38329065,-3.3126693,0.021398783,0.08219842,0.111594245,-0.026019288,0.028152948,0.09144004,0.07459379175280043,-0.56467806209877,91.20726096404586
1729620009067170,-0.42237788,-0.38344362,-3.3128557,0.021210512,0.08243406,0.11233803,-0.023533821,0.029454937,0.092972994,0.07417166515473156,-0.5630711822803239,91.20829904439015
1729620009075170,-0.42274505,-0.3835715,-3.313005,0.021019587,0.08267002,0.113068506,-0.023865605,0.029494984,0.09130965,0.07361645494444373,-0.5617127629706073,91.20915949811025
1729620009091170,-0.42344347,-0.38375467,-3.3131952,0.020663315,0.08314111,0.11445596,-0.02226699,0.029443296,0.08671591,0.07201306464254985,-0.5592478005160956,91.21037527521126
1729620009099170,-0.42377532,-0.3838109,-3.3132617,0.020494958,0.08339087,0.11512615,-0.021044629,0.031219793,0.08377339,0.07126180262701806,-0.5582491046658689,91.21073016619238
1729620009107170,-0.42408684,-0.38383362,-3.3132942,0.020372907,0.08364938,0.115759194,-0.01525646,0.0323141,0.07913075,0.07054978958905954,-0.5572197250437043,91.21094869378138
1729620009115170,-0.42438725,-0.38383406,-3.3132932,0.020267792,0.08393207,0.11636818,-0.013139331,0.03533624,0.07612351,0.0697091444821487,-0.556261692423726,91.2105179625031
1729620009131170,-0.42476338,-0.38481897,-3.3151464,0.020013465,0.08398986,0.11720035,-0.015895464,0.0036116687,0.052010637,0.06750423159295764,-0.5545755169685316,91.20930843859246
1729620009139170,-0.4249406,-0.3852633,-3.3159893,0.019902807,0.084043734,0.11760054,-0.013832235,0.006734393,0.050023194,0.06590975052402777,-0.5539439083610919,91.20856364654256
1729620009147170,-0.42511076,-0.38567653,-3.3167782,0.01980662,0.08410297,0.11800023,-0.0120233735,0.0074049453,0.049961727,0.06384074053658818,-0.5533387680382661,91.20766840088358
1729620009155170,-0.4252739,-0.38605946,-3.3175144,0.019714708,0.08416542,0.118412346,-0.011489027,0.007805414,0.05151424,0.06136574283472353,-0.552909513335233,91.20676661431267
1729620009171170,-0.4255795,-0.3867369,-3.318869,0.019549392,0.084352635,0.11925616,-0.010332208,0.011701136,0.052738465,0.05587486139600035,-0.5525954167385306,91.20456652832318
1729620009179170,-0.42571512,-0.38702738,-3.3194716,0.019502208,0.08445397,0.119736284,-0.0058980654,0.012666917,0.060015354,0.053078196991335494,-0.552709027279321,91.20322761401773
1729620009187170,-0.42584413,-0.38729024,-3.3200254,0.019436613,0.08457238,0.120214425,-0.008199364,0.014801509,0.059767623,0.050217976621727604,-0.5528938245140045,91.20166995630188
1729620009195170,-0.4259666,-0.3875261,-3.3205318,0.019411545,0.084682934,0.1207351,-0.0031334346,0.013818963,0.06508455,0.04733219214883588,-0.5531193379823145,91.19990038462609
1729620009211170,-0.42619157,-0.38791904,-3.3214054,0.019371344,0.084978156,0.12184936,-0.0025125917,0.018451363,0.06964104,0.041106057872042294,-0.5541276917306247,91.19604732105596
1729620009219170,-0.42629436,-0.38807723,-3.3217936,0.019346522,0.085130006,0.122443095,-0.003102701,0.018981285,0.074217096,0.0379906841036988,-0.5549464456439323,91.19395002761219
1729620009227170,-0.42639077,-0.38821068,-3.3221374,0.019347925,0.085295506,0.12305008,0.00017532146,0.020687466,0.07587299,0.034559478347818404,-0.5561136624432966,91.19181183056492
1729620009235170,-0.42648074,-0.38831985,-3.3224378,0.019358858,0.08548443,0.12367621,0.0013667158,0.023615545,0.07826649,0.031036168206488673,-0.5574209583398237,91.18958506795016
1729620009251170,-0.42740396,-0.3887574,-3.3233526,0.019172825,0.0857935,0.124782175,-0.011627096,0.019317027,0.06912276,0.024153077027864026,-0.5599050241242164,91.18499446197389
1729620009259170,-0.42820296,-0.38907307,-3.3239584,0.018974302,0.085928366,0.12523828,-0.024815321,0.01685787,0.0570137,0.021436723785251334,-0.5611225102412485,91.18329339160532
1729620009267170,-0.42897853,-0.38935977,-3.3245149,0.018801285,0.08609316,0.12569292,-0.021627171,0.02059899,0.0568293,0.01916896906710874,-0.5623808729938623,91.18152424160316
1729620009275170,-0.42973107,-0.38961807,-3.3250232,0.018651681,0.08625367,0.12616141,-0.018700492,0.020064412,0.05856156,0.017257895678585457,-0.563755514943685,91.1797412918369
1729620009291170,-0.4311695,-0.3900522,-3.3259332,0.018344076,0.08663318,0.12710892,-0.019225292,0.023719387,0.059219074,0.01360538931104626,-0.5670039616559933,91.17595017101347
1729620009299170,-0.43185663,-0.3902289,-3.3263195,0.01820247,0.08683152,0.12759686,-0.017700717,0.024791805,0.06099231,0.011543295060578605,-0.5688639989217794,91.17399670179083
1729620009307170,-0.432523,-0.3903795,-3.3266616,0.018066904,0.08704725,0.1281223,-0.01694588,0.026966443,0.06568059,0.008982464300063614,-0.5704629825496633,91.17213869865715
1729620009315170,-0.43313718,-0.39049706,-3.3269598,0.017999742,0.08729665,0.1286571,-0.0083951745,0.03117509,0.066850334,0.006124930471454114,-0.5719266901187373,91.17019184650896
1729620009331170,-0.43430695,-0.39065763,-3.3274286,0.017912183,0.0877649,0.12981738,-0.005472451,0.029265413,0.07251743,-0.0006502880281360218,-0.5744194603711703,91.16588156352842
1729620009339170,-0.4348636,-0.39070168,-3.327619,0.017862102,0.08803104,0.13038471,-0.006260117,0.033267774,0.07091649,-0.004384055248562827,-0.5755291018190187,91.16386620912273
1729620009347170,-0.43540195,-0.3907221,-3.3277693,0.017851405,0.088310726,0.13094458,-0.0013371463,0.034960918,0.0699833,-0.00833341301481858,-0.5765267867445318,91.16170089060391
1729620009355170,-0.43592227,-0.3907193,-3.3278804,0.017837232,0.08859999,0.13151067,-0.0017716083,0.036157668,0.07076189,-0.012703890414429635,-0.5776055844623347,91.1595556433076
1729620009371170,-0.43681678,-0.3908087,-3.3288505,0.017863441,0.089129426,0.13238162,0.0016380799,0.03308989,0.054433938,-0.021676395263696715,-0.579855712969464,91.1552180334692
1729620009379170,-0.43717924,-0.39088997,-3.32969,0.017935794,0.089355536,0.13271852,0.0090440735,0.028263776,0.04211254,-0.02607961560426398,-0.5806755911592263,91.15320274525537
1729620009387170,-0.43752775,-0.39094687,-3.3304727,0.018017618,0.08960272,0.13302536,0.010228016,0.030898487,0.03835559,-0.030519204499705133,-0.5813295086707351,91.15094823010456
1729620009395170,-0.43786258,-0.3909798,-3.3312006,0.018109735,0.08984721,0.133335,0.011514639,0.030560417,0.038703904,-0.03507947220907835,-0.5815075296417684,91.14874841669051
1729620009411170,-0.4384921,-0.39097586,-3.3325243,0.018342396,0.09038996,0.13404886,0.0145413205,0.033922028,0.044616867,-0.04424141537262033,-0.5809848865551066,91.14402754496649
1729620009419170,-0.43878698,-0.39093983,-3.3331077,0.018481214,0.0906675,0.13446312,0.01735217,0.034692697,0.05178153,-0.048787429039978875,-0.580335238170686,91.14174557674718
1729620009427170,-0.43906888,-0.39088166,-3.3336403,0.01862526,0.09096762,0.1348715,0.018005725,0.037514605,0.05104765,-0.053407000036616574,-0.5794159970405451,91.13933371859211
1729620009435170,-0.4393379,-0.3908017,-3.3341236,0.018787997,0.091275916,0.13531853,0.020342179,0.038537197,0.05587935,-0.05794775128415011,-0.5783346375274471,91.13693545190661
1729620009443170,-0.43959418,-0.39070046,-3.3345582,0.018963113,0.09156807,0.13580023,0.021889571,0.03651902,0.060211863,-0.06251091340287679,-0.5770906260881395,91.13463293037901
1729620009459170,-0.44006255,-0.39044216,-3.335301,0.019360427,0.09214802,0.13680747,0.024832085,0.036247075,0.06295275,-0.07159306937952128,-0.5742880793503083,91.13003458401003
1729620009467170,-0.44027507,-0.3902858,-3.3356106,0.019575415,0.092459746,0.13733232,0.026873544,0.038965605,0.06560609,-0.07590503902139364,-0.5728170603763666,91.12818292713195
1729620009475170,-0.44047555,-0.3901097,-3.3358753,0.019784661,0.09278247,0.137876,0.026155727,0.040340234,0.06796047,-0.08011687451912915,-0.5713589557484953,91.12630361848807
1729620009491170,-0.440841,-0.38970014,-3.336274,0.020270554,0.093401544,0.1389951,0.030368332,0.038692262,0.06994326,-0.08814318532476526,-0.5681889509006502,91.1226002425868
1729620009499170,-0.4404883,-0.3891277,-3.3363008,0.020702602,0.09385387,0.13961816,0.054005995,0.05654059,0.07788278,-0.09192219992947866,-0.5662123680572401,91.12085778997212
1729620009507170,-0.44013616,-0.38854495,-3.3362894,0.021149378,0.09429285,0.14024943,0.05584699,0.05487259,0.07890909,-0.09569749747411743,-0.5640858346220378,91.11830212803642
1729620009515170,-0.43978423,-0.38795203,-3.33624,0.021599622,0.094741076,0.14086203,0.05628052,0.056028362,0.076575205,-0.09926761582932303,-0.5617447810210969,91.11575343088586
1729620009531170,-0.4390707,-0.38674927,-3.3360658,0.02250273,0.09561407,0.14201047,0.056444198,0.054561995,0.07177703,-0.10572164800861597,-0.5566186933651297,91.11043047939444
1729620009539170,-0.4387089,-0.38613948,-3.3359253,0.022960583,0.09605667,0.14254901,0.05723163,0.055325214,0.06731786,-0.10829322551946448,-0.553810499995373,91.10837362519825
1729620009547170,-0.43834683,-0.38551974,-3.3357506,0.023415605,0.09648225,0.14306535,0.05687773,0.05319714,0.06454252,-0.11027523070754836,-0.5506352216858146,91.10627579741643
1729620009555170,-0.43798438,-0.38489038,-3.335543,0.023873229,0.09691274,0.14353746,0.057202995,0.053811815,0.059014183,-0.11146851253877714,-0.5469157462725268,91.10413673277736
1729620009571170,-0.43725795,-0.38360277,-3.3350315,0.024767386,0.09777538,0.14445506,0.055884823,0.053914726,0.05734991,-0.11179934441540224,-0.5376192289986154,91.09996072255007
1729620009579170,-0.43689364,-0.3829449,-3.3347478,0.025222603,0.09819698,0.14488152,0.056902178,0.052700747,0.053307038,-0.11074921299598371,-0.5320262343440954,91.09789652671891
1729620009587170,-0.43652847,-0.3822779,-3.3344338,0.025664413,0.09859538,0.14524713,0.055226263,0.049799677,0.045701858,-0.10892167135404152,-0.5262039968631483,91.09588020459087
1729620009595170,-0.4362,-0.38160682,-3.334091,0.026058199,0.099001475,0.14560878,0.04922319,0.050761733,0.045206394,-0.10647376908747334,-0.5200025669668941,91.09386382080093
1729620009611170,-0.435539,-0.38023782,-3.3333218,0.02681002,0.09982241,0.14625901,0.04698883,0.05130842,0.04063919,-0.09979289347607512,-0.5064475660908739,91.08932518264302
1729620009619170,-0.43520647,-0.37954006,-3.3328965,0.02717402,0.1002309,0.1465603,0.045499995,0.05106162,0.037660822,-0.09559698524209134,-0.4992145974657873,91.08702855414072
1729620009627170,-0.43443573,-0.37906343,-3.3324432,0.027663577,0.10055463,0.14678983,0.061194643,0.040465962,0.028692184,-0.09076869787189247,-0.4918888922157814,91.08478656436499
1729620009635170,-0.43367395,-0.37857276,-3.331966,0.028158728,0.10088229,0.14700209,0.061893832,0.0409577,0.026531516,-0.08553251682849547,-0.484293819793699,91.08173834526701
1729620009651170,-0.43217617,-0.3775505,-3.3309765,0.029130701,0.10150909,0.14731936,0.060748305,0.039174687,0.019829718,-0.07357428190933132,-0.46792662730085643,91.07567613923312
1729620009659170,-0.43143946,-0.37701955,-3.3304472,0.029592477,0.10182558,0.1474274,0.057721972,0.039561648,0.013504176,-0.0668691934893794,-0.45929415952608676,91.07281245853989
1729620009667170,-0.43071124,-0.3764683,-3.3298965,0.030033575,0.102141924,0.14751737,0.05513732,0.03954302,0.0112466505,-0.05968003418604257,-0.45073246085754065,91.06990768163982
1729620009675170,-0.42999077,-0.37590468,-3.3293242,0.030461859,0.10245125,0.14759141,0.053535447,0.03866572,0.009255484,-0.05220112058937785,-0.4421317909899819,91.06685949870645
1729620009691170,-0.42857215,-0.37474123,-3.3281193,0.03129205,0.10309595,0.1476389,0.051887006,0.040293667,0.0029681248,-0.0363519764537044,-0.42481940728007556,91.06092060617203
1729620009699170,-0.42787358,-0.3741419,-3.3275082,0.031691324,0.103396796,0.14758992,0.049909107,0.037605874,-0.006122514,-0.027762396611506163,-0.41598674773474836,91.05805695901765
1729620009707170,-0.427182,-0.37353125,-3.3268788,0.032061104,0.10370274,0.14749779,0.046222467,0.0382429,-0.011516734,-0.018660681154445278,-0.40707368124017373,91.05505679735197
1729620009715170,-0.4264973,-0.37290967,-3.3262315,0.032403786,0.103985325,0.1474075,0.042835247,0.035323203,-0.011285766,-0.009127768119807464,-0.3984051566131863,91.05221365100832
1729620009731170,-0.42514825,-0.37163496,-3.3248863,0.033059247,0.10452684,0.14714178,0.040966317,0.033844728,-0.016607344,0.010782252197970577,-0.3811381721883477,91.04645933588527
1729620009739170,-0.42446655,-0.37097704,-3.3241897,0.033381067,0.104796566,0.1469981,0.040227544,0.03371574,-0.017959625,0.020978275093726552,-0.3723219149325734,91.04361651998269
1729620009747170,-0.4240746,-0.3704235,-3.3239472,0.033588734,0.10490006,0.14669661,0.025958287,0.012937001,-0.0376869,0.03120604275320566,-0.36367559754987966,91.04024072138282
1729620009755170,-0.4236825,-0.36985964,-3.3236787,0.033766292,0.1050153,0.14633918,0.022194812,0.014404765,-0.044679265,0.04154780022229569,-0.3549142669233612,91.03692639245544
1729620009771170,-0.42289838,-0.3687017,-3.323105,0.034081955,0.10522066,0.1454965,0.019728903,0.012835021,-0.05266722,0.06266229895846286,-0.3377458458515361,91.03041428161043
1729620009779170,-0.42250645,-0.36810836,-3.322783,0.03422207,0.10530014,0.14505579,0.017514452,0.009935348,-0.05508959,0.07340051352885209,-0.3290994803647793,91.02728448296682
1729620009787170,-0.42211467,-0.36750582,-3.322438,0.034355912,0.105377965,0.14463264,0.016730279,0.009727664,-0.05289353,0.08390629728901361,-0.3205616066839677,91.02416164179434
1729620009795170,-0.4217232,-0.36689448,-3.322071,0.0344812,0.10543271,0.14421444,0.01566112,0.006843358,-0.052275132,0.09426817902802234,-0.31211722972234696,91.0211278291807
1729620009811170,-0.42095542,-0.36562914,-3.321274,0.034698386,0.10556134,0.1434088,0.013574026,0.008039176,-0.05035195,0.11438795223497614,-0.295604641606612,91.0148345497312
1729620009819170,-0.42057213,-0.3649843,-3.3208637,0.034767352,0.10562208,0.14302479,0.008620787,0.0075930725,-0.048002224,0.12406716598587464,-0.28748808399309084,91.01165032661326
1729620009827170,-0.4201895,-0.36433178,-3.3204334,0.034822028,0.10566706,0.14262795,0.0068345102,0.005622394,-0.0496041,0.13346878003117554,-0.2796272937598896,91.00845257042567
1729620009835170,-0.41980767,-0.3636718,-3.3199837,0.03485703,0.10570166,0.14225148,0.0043753535,0.004325062,-0.047059726,0.14251206280382617,-0.2719327297178566,91.00541219015953
1729620009851170,-0.4190472,-0.3623302,-3.3190281,0.034859624,0.10580227,0.14150591,0.00016205011,0.006287824,-0.04659779,0.15972950969142075,-0.2570582067617791,90.9994608950234
1729620009859170,-0.41866875,-0.3616489,-3.3185236,0.034840696,0.10584296,0.14113572,-0.002366025,0.0050868834,-0.04627369,0.1679272714220473,-0.2498230980142697,90.99663899949782
1729620009867170,-0.41829148,-0.360961,-3.3180017,0.03483641,0.10585724,0.14077519,-0.0005355105,0.0017844139,-0.045066696,0.1758189851825003,-0.24298073265357564,90.99384448333811
1729620009875170,-0.41850922,-0.36018938,-3.3179579,0.03450298,0.10583724,0.14034598,-0.04167901,-0.0024996696,-0.053651627,0.18328512282991474,-0.23626336961825115,90.99105674026897
1729620009891170,-0.41888928,-0.35865715,-3.3178172,0.033842996,0.105738595,0.13948259,-0.041248973,-0.006165355,-0.053961758,0.1977926829188089,-0.22317216629012165,90.99121987363395
1729620009899170,-0.41906413,-0.3578864,-3.3177047,0.033523098,0.1056891,0.13906798,-0.039987262,-0.0061867754,-0.051826235,0.20451849301327277,-0.21705820806810092,90.99184109597948
1729620009907170,-0.41922933,-0.3571127,-3.317565,0.033196107,0.10562667,0.1386592,-0.04087388,-0.0078035514,-0.05109794,0.21094927790221915,-0.21103336554621177,90.99249646384803
1729620009915170,-0.41938534,-0.35633624,-3.317399,0.03285487,0.105550416,0.13825305,-0.04265457,-0.009532087,-0.050768252,0.21693153432476134,-0.20505736419109033,90.9932816452567
1729620009931578,-0.41967085,-0.35477522,-3.3169904,0.032226823,0.1053992,0.13751572,-0.03827686,-0.0092160525,-0.04493688,0.22742750548835786,-0.19322415004169544,90.99524839608598
1729620009939578,-0.4198009,-0.35399085,-3.316768,0.03191005,0.105323076,0.13714607,-0.039596573,-0.009515323,-0.046206634,0.23170165878297075,-0.18726959297984197,90.9962453992305
1729620009947578,-0.41993806,-0.353203,-3.3165214,0.031580735,0.105237685,0.13680953,-0.041164454,-0.010673887,-0.042067837,0.23539185651021535,-0.18122164264046894,90.99733112165605
1729620009955578,-0.4200673,-0.35241273,-3.316251,0.031253148,0.10516382,0.13645564,-0.040948387,-0.009233132,-0.044235956,0.23852439224280364,-0.17506046206160342,90.99819159906494
1729620009971578,-0.42030352,-0.35082507,-3.3156428,0.03058482,0.10500542,0.13576888,-0.041770514,-0.009899958,-0.04292279,0.24272541405802692,-0.16240257251185372,91.0001856599695
1729620009979578,-0.42041108,-0.35002783,-3.315306,0.030261459,0.10493116,0.13545422,-0.040420096,-0.009282492,-0.03933161,0.2438734889210228,-0.1559997256926406,91.00119637760265
1729620009987578,-0.42051187,-0.3492284,-3.314948,0.029935636,0.10484089,0.13513239,-0.0407279,-0.011283903,-0.040229406,0.2442773167987064,-0.14947057525264476,91.002343737686
1729620009995578,-0.4202201,-0.34850174,-3.3148952,0.029711314,0.10481062,0.13476202,-0.028040258,-0.0037839634,-0.04629604,0.2439826792963981,-0.1427898948005796,91.00355944853803
1729620010011578,-0.41964656,-0.34703305,-3.3147385,0.02927362,0.10477323,0.13402246,-0.027355853,-0.0023366883,-0.046222467,0.2413187483026784,-0.129268923571586,91.00601135586115
1729620010019578,-0.41935536,-0.34628826,-3.3146188,0.029079873,0.10472803,0.13369055,-0.024218343,-0.0056503336,-0.041488554,0.23916892545229518,-0.12236302537748817,91.00742505013645
1729620010027578,-0.41906732,-0.3455389,-3.3144727,0.02888756,0.10469074,0.13336499,-0.024039064,-0.0046612695,-0.040695067,0.2363049944617918,-0.11550956944573665,91.00882520532325
1729620010035578,-0.4187824,-0.34478498,-3.3143003,0.02868877,0.10465673,0.1330456,-0.024848849,-0.004250556,-0.039923932,0.23301483372267182,-0.10873628332230388,91.01043035440979
1729620010051578,-0.41822112,-0.3432645,-3.3138804,0.028348835,0.104532965,0.13247144,-0.021245912,-0.007735565,-0.03588479,0.2250827085621272,-0.09557937036755298,91.01344925384504
1729620010059578,-0.4179444,-0.34249815,-3.3136528,0.02817633,0.104473695,0.13218231,-0.021563143,-0.0074086706,-0.036140904,0.22051719630245967,-0.08927831255298906,91.01489739150335
1729620010067578,-0.41767022,-0.34172788,-3.3134015,0.028009068,0.1044138,0.13190511,-0.020907724,-0.0074869017,-0.034650788,0.2157013584866122,-0.0829957653834482,91.01637967450924
1729620010075578,-0.4173984,-0.34095377,-3.3131268,0.027851492,0.10435326,0.13164443,-0.019697005,-0.007567927,-0.032585114,0.21098096991493903,-0.07656342182351432,91.01775927780471
1729620010091578,-0.4168688,-0.33939964,-3.3125107,0.027532894,0.104202345,0.13114896,-0.019912373,-0.009431969,-0.030966474,0.2018621883120036,-0.0626263771558587,91.02038915452832
1729620010099578,-0.41661066,-0.33861992,-3.3121703,0.0273939,0.10409497,0.13091557,-0.017374288,-0.01342222,-0.02917461,0.19765457022968036,-0.05529046328374702,91.02159815008329
1729620010107578,-0.4163542,-0.337837,-3.3118088,0.027260248,0.103977434,0.13068314,-0.01670653,-0.014691613,-0.029053537,0.1934502346999988,-0.048165685946974734,91.02290964281207
1729620010115578,-0.4160994,-0.33705115,-3.311427,0.02712669,0.10386035,0.13045135,-0.016694656,-0.014635733,-0.028973443,0.1892635224244503,-0.04113035550764951,91.02411180861937
1729620010131578,-0.4153751,-0.33463755,-3.3121552,0.026923722,0.10394363,0.12969145,-0.012685544,0.0052051614,-0.047493722,0.18167964572462558,-0.027688747539537206,91.0267144276886
1729620010139578,-0.41501933,-0.3334406,-3.3124616,0.026827822,0.10397801,0.12930815,-0.011987518,0.0042971224,-0.047912817,0.17817930795445128,-0.020860812248710375,91.02823774372621
1729620010147578,-0.41466755,-0.33224997,-3.3127308,0.026747786,0.10400081,0.12892236,-0.010004499,0.0028498468,-0.04822388,0.17505584022271928,-0.013850983441461535,91.0297337432379
1729620010155578,-0.41429654,-0.33106542,-3.312964,0.026700815,0.104006276,0.12857164,-0.00587129,0.0006835907,-0.043839213,0.172372197419238,-0.006741183282943941,91.0311956586425
1729620010171578,-0.41356593,-0.3287147,-3.3133252,0.026629986,0.103998244,0.12794395,-0.004426809,-0.00050198287,-0.03923103,0.16810640237529803,0.00793992818288738,91.03564274337006
1729620010179578,-0.413206,-0.32754827,-3.3134706,0.026593218,0.10398842,0.1276891,-0.004596077,-0.0012284144,-0.03185682,0.16647120939930396,0.015458245733688616,91.03767171883871
1729620010187578,-0.41284958,-0.32638764,-3.3135824,0.026545161,0.103956036,0.127462,-0.00600703,-0.004047528,-0.02838671,0.16515845781622931,0.023160138239694424,91.03974166899695
1729620010195578,-0.41249654,-0.32523277,-3.3136613,0.0265127,0.10392689,0.12728307,-0.0040577725,-0.0036433337,-0.022366641,0.16414431220987824,0.03104422515287153,91.04179113221997
1729620010211578,-0.41179985,-0.32294005,-3.3137238,0.026467428,0.10378797,0.12703283,-0.0028294742,-0.008682255,-0.0156397,0.16306602948191873,0.04757168606549869,91.04582170659704
1729620010219578,-0.41145596,-0.32180235,-3.3137085,0.026455117,0.10368656,0.12693724,-0.0015387776,-0.012676231,-0.011948868,0.1632983545619353,0.05621609442676405,91.04774160593145
1729620010227578,-0.4111288,-0.3206764,-3.3136635,0.02642246,0.103564195,0.126862,-0.0040822197,-0.015296041,-0.009404495,0.16404289492984345,0.06503416040485843,91.04963400247462
1729620010235578,-0.4108042,-0.319556,-3.313589,0.026383849,0.103440285,0.12682316,-0.0048263464,-0.015488825,-0.004855916,0.16533873143372457,0.07402424344601606,91.05149244222731
1729620010251578,-0.41015705,-0.31755838,-3.313875,0.026273062,0.10292864,0.12666503,-0.00692415,-0.031977892,-0.009883194,0.16941485024151665,0.09274057583011988,91.05527053484694
1729620010259578,-0.409835,-0.31667817,-3.3142076,0.02620584,0.1025518,0.1265454,-0.008402858,-0.04710443,-0.014953314,0.1722118057606187,0.10290191110597907,91.05707428215898
1729620010267578,-0.40951598,-0.3158006,-3.3145013,0.026118062,0.1021449,0.126428,-0.010972143,-0.050863247,-0.01467578,0.17522341991234427,0.11326602125486461,91.0587621261047
1729620010275578,-0.4092,-0.31492582,-3.314757,0.026024275,0.10174099,0.12631546,-0.011723488,-0.050487924,-0.014066695,0.1782851523058445,0.12358172336342632,91.06053849625853
1729620010291578,-0.40857702,-0.31318533,-3.3151588,0.02584158,0.100874186,0.12616977,-0.011418363,-0.054175496,-0.009105541,0.1841188836662652,0.14389320058792415,91.06383217943515
1729620010299578,-0.4083082,-0.31232777,-3.3153203,0.025699979,0.10043397,0.12613706,-0.017700251,-0.05502719,-0.004088506,0.18693170632313214,0.15360006603954413,91.0653150312271
1729620010307578,-0.4080419,-0.31147334,-3.3154466,0.025553208,0.099986196,0.12612566,-0.018346356,-0.05597155,-0.0014249234,0.1898105520526684,0.16295574002303986,91.0663675916268
1729620010315578,-0.40777805,-0.31062225,-3.315539,0.02539955,0.099513076,0.12612109,-0.019207131,-0.05913991,-0.00057183206,0.19278754223912306,0.17196470464497365,91.06726308526736
1729620010331578,-0.40725738,-0.30893064,-3.3156238,0.025138095,0.098558016,0.12619914,-0.016340986,-0.059691254,0.0048782676,0.19932232372042366,0.18906959765731732,91.06884888577687
1729620010339578,-0.40700036,-0.30809024,-3.3156178,0.025008725,0.09809037,0.12626511,-0.016171252,-0.05845539,0.00824593,0.2028841840442009,0.19708661774291633,91.06954614863398
1729620010347578,-0.40674555,-0.30725357,-3.3155806,0.024874536,0.097585976,0.12633428,-0.016773585,-0.06304961,0.008646399,0.20669642886650022,0.20476433119343576,91.07014786930772
1729620010355578,-0.4064929,-0.30642077,-3.3155131,0.024750352,0.0970927,0.12641199,-0.015523051,-0.06165914,0.009713694,0.21031034914630958,0.21163732112785252,91.07074952678794
1729620010371578,-0.40620372,-0.30501413,-3.3156369,0.024357013,0.09592722,0.1265045,-0.024583654,-0.072842464,0.00578165,0.21711794234486492,0.2237868613108358,91.07159754135346
1729620010379578,-0.4061627,-0.30443537,-3.3158054,0.024106355,0.09527508,0.12652184,-0.03133225,-0.081517726,0.002168119,0.2204557555440353,0.22959235410318002,91.07225364095324
1729620010387578,-0.4061196,-0.3038557,-3.3159387,0.023848282,0.09465416,0.12652706,-0.03225915,-0.07761549,0.00065192574,0.22375193678686378,0.23533424257938013,91.07288944559355
1729620010395578,-0.4060746,-0.30327523,-3.3160374,0.023594799,0.09402461,0.12653078,-0.031685457,-0.078693025,0.00046566126,0.2269662917219557,0.2409363534283234,91.07341598599584
1729620010411578,-0.40597937,-0.3021127,-3.3161352,0.023056526,0.092800885,0.12660997,-0.033642046,-0.076483004,0.0049490477,0.23288199686930744,0.251063242763076,91.07433223109426
1729620010419578,-0.4059294,-0.30153066,-3.31615,0.022802925,0.09219479,0.12666179,-0.031700123,-0.07576216,0.0064782794,0.23536696688033912,0.25528548814933916,91.07481064915966
1729620010427578,-0.40587783,-0.30094832,-3.316133,0.022536442,0.09158971,0.12671487,-0.03331038,-0.07563457,0.0066347416,0.23757155331943533,0.25891203494456067,91.07516620851212
1729620010435578,-0.40581313,-0.30038127,-3.3160853,0.02227327,0.09097315,0.12675384,-0.032896407,-0.07706974,0.004870817,0.23958206550361102,0.2620417346697073,91.0754396911988
1729620010443578,-0.4057474,-0.29981396,-3.3160074,0.022011777,0.090356514,0.12681761,-0.03268663,-0.07707998,0.007972121,0.24125440352337163,0.2651866965441032,91.0772572464029
1729620010459578,-0.40561315,-0.2986789,-3.3157644,0.02147298,0.08912103,0.12692432,-0.033674877,-0.07721782,0.0066692005,0.2439095515316859,0.2710937276074563,91.08055045727633
1729620010467578,-0.40554485,-0.29811147,-3.3156013,0.021208245,0.08850068,0.12698649,-0.033091754,-0.07754378,0.007770955,0.24462483354199943,0.2736095868423494,91.08223124120788
1729620010475578,-0.40547577,-0.29754424,-3.3154113,0.020947821,0.08789541,0.12703101,-0.032552984,-0.07565878,0.0055655832,0.2448874545971612,0.27580146242851544,91.0837549578261
1729620010491578,-0.40533563,-0.29641062,-3.3149843,0.020410733,0.08666949,0.12712748,-0.033568006,-0.07661991,0.006029382,0.24426572392927925,0.2793350062109038,91.08678854113657
1729620010499578,-0.40541896,-0.2956146,-3.3148656,0.020109847,0.086200535,0.12712626,-0.03761076,-0.0586193,-0.0001527369,0.24345486459592566,0.28070186078146303,91.08819584198315
1729620010507578,-0.4054975,-0.29482743,-3.314719,0.019802319,0.08572312,0.12714353,-0.038441036,-0.059677284,0.0021588057,0.24246141587785588,0.2816804305669229,91.08994478949246
1729620010515578,-0.40557194,-0.29404527,-3.3145454,0.019490728,0.085248955,0.12717338,-0.03894884,-0.059270296,0.003730878,0.2410682251734856,0.2824561466855604,91.09198062166061
1729620010531578,-0.4057089,-0.29249558,-3.3141193,0.018906355,0.084296435,0.12721303,-0.036523327,-0.059532464,0.0024782491,0.23754144473680988,0.2829685238324121,91.09596350916566
1729620010539578,-0.40577155,-0.2917279,-3.3138845,0.018625718,0.083828606,0.12722714,-0.03507966,-0.058478672,0.0017639248,0.2356727926102616,0.2832158277237689,91.09795147327311
1729620010547578,-0.4058304,-0.2909649,-3.313625,0.018351631,0.08336504,0.12721312,-0.034260795,-0.057945956,-0.001752749,0.23392825825615965,0.28368877075046267,91.09972773791246
1729620010555578,-0.4058856,-0.29020634,-3.3133419,0.018080438,0.08291527,0.12718557,-0.03389921,-0.056221146,-0.0034440306,0.2321578042431924,0.2843770541687146,91.1016339509437
1729620010571578,-0.40599245,-0.28870907,-3.312707,0.017523509,0.08196721,0.12711182,-0.034808062,-0.059253532,-0.0046091154,0.22790005617437473,0.28686274030322556,91.10517282377366
1729620010579578,-0.40604424,-0.28797024,-3.3123565,0.017247532,0.081508115,0.1270705,-0.03449712,-0.057387162,-0.0051651145,0.2254132951030021,0.2886563812728828,91.10565807837894
1729620010587578,-0.4060928,-0.28723556,-3.3119845,0.016966922,0.081040405,0.12705308,-0.035076167,-0.05846377,-0.0021774322,0.222698347620872,0.2908645082835523,91.10606808227418
1729620010595578,-0.40613824,-0.28650507,-3.3115919,0.016691769,0.08057245,0.12703447,-0.03439421,-0.058494505,-0.0023264438,0.2197021991750971,0.2932505965001238,91.1063893091999
1729620010611578,-0.40621993,-0.28505626,-3.3107812,0.016183376,0.07964851,0.12696469,-0.031774513,-0.057746187,-0.0043613836,0.21315937052528033,0.2987090310166243,91.10691606606612
1729620010619578,-0.40625623,-0.28433773,-3.3103466,0.015947292,0.07921157,0.12689611,-0.029510584,-0.05461741,-0.008571893,0.20983135046822507,0.3015693987404608,91.10708705518007
1729620010627578,-0.40571958,-0.2841343,-3.3101122,0.015938988,0.078487195,0.12677301,-0.001037959,-0.0905469,-0.015387311,0.2065593579215722,0.3044531395994081,91.10714878020555
1729620010635578,-0.4051929,-0.28392404,-3.3098543,0.015916867,0.07777239,0.1266105,-0.0027650965,-0.08935108,-0.020314006,0.20309714399528378,0.3076111332820615,91.10617899458855
1729620010651578,-0.40417346,-0.28348455,-3.3092706,0.01586885,0.07635363,0.12624392,-0.0030010703,-0.088672146,-0.022911465,0.19622971044069154,0.31437981706073315,91.10444468740204
1729620010659578,-0.40368006,-0.28325576,-3.3089638,0.0158358,0.07564702,0.12604597,-0.004131347,-0.088326626,-0.024743376,0.19289945133715966,0.31759042832229734,91.10280532652877
1729620010667578,-0.40319547,-0.28302136,-3.308636,0.0158059,0.07495589,0.12582539,-0.0037373973,-0.08639134,-0.027572734,0.1898461357867237,0.3207401815746285,91.10120024145661
1729620010675578,-0.40271938,-0.2827815,-3.3082876,0.01579219,0.07427349,0.12558483,-0.0017138663,-0.08529983,-0.030070541,0.1870435103833055,0.32375175566083586,91.09945181110714
1729620010691578,-0.4017914,-0.28228658,-3.3075328,0.015766209,0.07293459,0.12513496,-0.0016237608,-0.08368119,-0.028116627,0.1825330320101699,0.32871087355072165,91.09564022188547
1729620010699578,-0.40133902,-0.28203192,-3.3071275,0.015751826,0.07228477,0.12491347,-0.0017979181,-0.08122715,-0.027686356,0.18082771454229427,0.33066372633301944,91.09363878678755
1729620010707578,-0.40089408,-0.2817727,-3.3067043,0.015731446,0.07165606,0.12467893,-0.0025473998,-0.07858872,-0.029317101,0.17949987817725335,0.33212605160582714,91.0915211267247
1729620010715578,-0.4004564,-0.28150916,-3.3062637,0.015703382,0.07099512,0.12444942,-0.003508059,-0.08261762,-0.02868939,0.17854985150034372,0.33341724594073857,91.08930779430798
1729620010731578,-0.39966565,-0.28098094,-3.305367,0.01555942,0.06970688,0.12399752,-0.008997624,-0.08051516,-0.028243752,0.1776829911622046,0.3349112418288986,91.08351492428922
1729620010739578,-0.39928004,-0.28071123,-3.3048937,0.015474881,0.06908073,0.12378843,-0.010567367,-0.07826835,-0.026135704,0.17793493477956054,0.3350541713161789,91.07999678329931
1729620010747578,-0.39932093,-0.28066644,-3.305037,0.015144972,0.06829987,0.12344224,-0.041238613,-0.09760819,-0.0432739,0.17847300553698123,0.33489440619221045,91.07651259473197
1729620010755578,-0.39935988,-0.28061423,-3.3051486,0.014820081,0.06754613,0.12309582,-0.040611368,-0.09421724,-0.04330277,0.17973122710418576,0.3346133231021697,91.07332914347774
1729620010771578,-0.3994323,-0.280489,-3.30528,0.014169332,0.06603179,0.12236228,-0.040671844,-0.09464612,-0.045846213,0.1830355841186685,0.33331356404861084,91.06666144121617
1729620010779578,-0.39946604,-0.28041646,-3.305317,0.013841562,0.06531106,0.12199481,-0.040971205,-0.09009148,-0.045933757,0.18489923136272807,0.3323719158692908,91.06325926790252
1729620010787578,-0.3994983,-0.28033763,-3.3053255,0.013519564,0.06458947,0.12163884,-0.04024978,-0.090198584,-0.044495795,0.18685078031503996,0.3313856039987326,91.06000050702123
1729620010795578,-0.3995178,-0.28025898,-3.3053064,0.013214684,0.06387518,0.12131377,-0.03810995,-0.08928589,-0.0406336,0.18885968113559579,0.33002199805007876,91.05671449347409
1729620010811578,-0.39955372,-0.2800842,-3.3051877,0.0125966035,0.062460065,0.120749556,-0.038630035,-0.0884449,-0.035263598,0.19327039409364238,0.32608171472535297,91.0518774481831
1729620010819578,-0.39957047,-0.27998838,-3.3050897,0.012276516,0.061777804,0.12044959,-0.040010896,-0.0852826,-0.03749598,0.1952745185270099,0.3233789441173182,91.0495681932728
1729620010827578,-0.39958662,-0.2798871,-3.304967,0.01195984,0.06110724,0.12017233,-0.039584585,-0.083820425,-0.034657307,0.1971603563532239,0.3203072848818156,91.04719046055185
1729620010835578,-0.39960232,-0.27978054,-3.3048196,0.011636442,0.06046322,0.11990285,-0.040424753,-0.080502585,-0.033685006,0.19865015678626266,0.31700475730067745,91.0449219961285
1729620010851578,-0.39963266,-0.27955192,-3.3044872,0.011021561,0.05921709,0.11938401,-0.038430035,-0.07788301,-0.032427255,0.20038916360178038,0.3098389545505396,91.04048763432505
1729620010859578,-0.39963606,-0.279437,-3.3042865,0.010755534,0.058605455,0.119174205,-0.03325334,-0.076454595,-0.026226042,0.20088046797457626,0.3061235180890043,91.03828076151262
1729620010867578,-0.39963937,-0.27931732,-3.3040633,0.010464005,0.057989337,0.1189775,-0.036441136,-0.07701479,-0.024587845,0.20117809864662306,0.3023637127476485,91.0376656418221
1729620010875578,-0.39927143,-0.2794674,-3.3034928,0.010380447,0.05722198,0.11889112,-0.010444782,-0.0959197,-0.010797753,0.20136877981723234,0.2984792027022525,91.03699582736556
1729620010891578,-0.39855927,-0.2797388,-3.3023121,0.010148232,0.05575512,0.11871038,-0.0145134395,-0.091678694,-0.011296476,0.20085427374139156,0.29100514262438265,91.03663295490107
1729620010899578,-0.398215,-0.2798607,-3.301722,0.010021436,0.055041365,0.11863704,-0.01584948,-0.0892193,-0.009167008,0.2003873034045748,0.28744080568237884,91.03644142958198
1729620010907578,-0.39787826,-0.2799737,-3.3011193,0.009904423,0.054350916,0.1185252,-0.014626653,-0.086306125,-0.013980082,0.19993143386949447,0.2837694800300496,91.03642740062767
1729620010915578,-0.39754876,-0.28007793,-3.3005044,0.009790432,0.05368061,0.11841069,-0.014248885,-0.08378829,-0.014313496,0.1992961925327301,0.27976469959328254,91.03661160244557
1729620010931578,-0.39691058,-0.28026116,-3.29924,0.009568236,0.05235968,0.118139304,-0.0138872415,-0.08255801,-0.016961712,0.19737023651695665,0.27063006997564476,91.0371504872654
1729620010939578,-0.39661124,-0.2803443,-3.2985911,0.009448631,0.05174549,0.11798503,-0.014950637,-0.07677404,-0.019283965,0.19598099424529317,0.26549659302042794,91.03755986495541
1729620010947578,-0.3963181,-0.28041938,-3.297932,0.0093384385,0.051139195,0.1177926,-0.013774027,-0.07578684,-0.024054198,0.1946475405179452,0.2600749399383519,91.03751839539584
1729620010955578,-0.396031,-0.28048655,-3.2972631,0.009214955,0.05055433,0.11756933,-0.01543539,-0.07310789,-0.027908942,0.19342749529431716,0.2542161527679622,91.03757936291274
1729620010971578,-0.39547405,-0.28059778,-3.2959387,0.008985269,0.049444146,0.11704029,-0.014355405,-0.06938656,-0.033064745,0.1919331105418718,0.24191465330965872,91.03783812775974
1729620010979578,-0.39520392,-0.28064206,-3.2952628,0.008864415,0.0489236,0.11673283,-0.01510675,-0.065068245,-0.03843289,0.19173330211771009,0.2356250350031269,91.03801512831132
1729620010987578,-0.39493918,-0.28067896,-3.2945788,0.008733945,0.048411813,0.11642776,-0.016308738,-0.06397348,-0.038133934,0.19191339547939584,0.2295208233057678,91.03826743462794
1729620010995578,-0.3948578,-0.28120106,-3.2944794,0.008542285,0.04773444,0.1159234,-0.023957457,-0.084671654,-0.06304495,0.1923649892430115,0.22353709059561816,91.03856766835116
1729620011011578,-0.39461002,-0.2821584,-3.2942154,0.008256533,0.04649829,0.11483647,-0.017859507,-0.07725926,-0.06793299,0.19366574894829847,0.21196406520279168,91.04006281072344
1729620011019578,-0.3944884,-0.28261063,-3.2940707,0.008115803,0.045916118,0.114296235,-0.017591286,-0.07277168,-0.06752927,0.19435614296369305,0.20624617160997868,91.04146290168343
1729620011027578,-0.39436817,-0.28304577,-3.293906,0.007979216,0.045358103,0.11374331,-0.017073354,-0.069751866,-0.06911531,0.19511786485785274,0.20048447054275295,91.04285628694646
1729620011035578,-0.39424935,-0.28346425,-3.2937217,0.007827817,0.04480039,0.113208815,-0.018924823,-0.06971415,-0.06681215,0.19594968904465818,0.194580510648149,91.04429728858143
1729620011051578,-0.39401633,-0.28425312,-3.2932973,0.007534718,0.04373006,0.11222581,-0.018318707,-0.0668955,-0.06143795,0.19714880475759042,0.1821396540285897,91.04724757922179
1729620011059578,-0.39390215,-0.2846241,-3.293058,0.0073759686,0.0432259,0.11174564,-0.019843688,-0.06302027,-0.060020942,0.1975408293069795,0.1755003176302471,91.04863394473504
1729620011067578,-0.39378962,-0.28497994,-3.2928011,0.0072066262,0.04273885,0.11130212,-0.021167796,-0.06088102,-0.055439766,0.19781154965211709,0.16852858405487162,91.05001373044473
1729620011075578,-0.39367062,-0.2853243,-3.2925274,0.007072653,0.04225761,0.11085709,-0.016746635,-0.060155053,-0.055628825,0.19787029579333837,0.1614515982742498,91.0513862480409
1729620011091578,-0.39343733,-0.28596967,-3.2919686,0.006793761,0.041371685,0.110054955,-0.017430749,-0.055370383,-0.050133556,0.1974638391331165,0.14715512002619957,91.05510877602146
1729620011099578,-0.3933232,-0.28627124,-3.2916644,0.0066467705,0.04095641,0.10970142,-0.01837383,-0.051909123,-0.044192184,0.19699052585502272,0.14000446313761786,91.05693232125435
1729620011107578,-0.39321068,-0.28655902,-3.2913442,0.006516183,0.040573724,0.10937117,-0.016323464,-0.047835983,-0.04128087,0.1965417705161474,0.1328100123919958,91.0587490990609
1729620011115578,-0.3930997,-0.2868333,-3.2910085,0.0063877613,0.040195275,0.109058276,-0.016052682,-0.04730606,-0.039111823,0.19594476779896175,0.1255119233749945,91.06062740012504
1729620011131578,-0.3942228,-0.28850132,-3.2905428,0.0055165943,0.03911087,0.10840821,-0.054447938,-0.06777537,-0.040628944,0.19526923702927793,0.11097889067927662,91.06346189041469
1729620011139578,-0.39476514,-0.2892958,-3.2903023,0.0050896313,0.038595207,0.1081036,-0.053370368,-0.06445777,-0.038076192,0.1953294479654459,0.10403981313909261,91.06445235242673
1729620011147578,-0.39529517,-0.29006478,-3.290044,0.004679657,0.038105164,0.107781366,-0.051246777,-0.06125541,-0.040279698,0.19570717954391154,0.09727333305189367,91.06536744107457
1729620011155578,-0.39582762,-0.29080188,-3.2897687,0.0042533386,0.037659742,0.10746958,-0.05328981,-0.05567772,-0.038973056,0.1961803597544265,0.0905115033914743,91.06624851120965
1729620011171578,-0.3968579,-0.29220346,-3.289169,0.0034275318,0.036815323,0.10683157,-0.05161292,-0.052776184,-0.039875504,0.1970755051764545,0.07661227372797991,91.06699281003118
1729620011179578,-0.39735645,-0.29286903,-3.288846,0.0030167624,0.0364109,0.10647057,-0.051346168,-0.05055265,-0.04512537,0.19707844319531956,0.06938775532672754,91.06733413331085
1729620011187578,-0.39784458,-0.29351184,-3.2885082,0.0025904432,0.03604044,0.1061079,-0.053289898,-0.046307683,-0.045333985,0.1964329868086724,0.06203193023280797,91.06757308496456
1729620011195578,-0.39832273,-0.29413235,-3.2881558,0.0021883976,0.035684437,0.10573704,-0.050255705,-0.04450045,-0.04635751,0.19521427645353542,0.054615214730367505,91.067818801915
1729620011211578,-0.39924988,-0.2953085,-3.2874506,0.0014256793,0.0350232,0.10499904,-0.047669888,-0.041327205,-0.046124678,0.1909280634512969,0.039627626805639526,91.06800312139073
1729620011219578,-0.39969942,-0.29586494,-3.2870774,0.0010626607,0.03474929,0.10465262,-0.04537732,-0.034238677,-0.04330277,0.18804030423119186,0.031862920831824695,91.06803713909775
1729620011227578,-0.40013987,-0.29640073,-3.2866912,0.00072233117,0.034502167,0.10430647,-0.04254119,-0.030890571,-0.043269243,0.1846451930356967,0.023851568219323663,91.06796872176147
1729620011235578,-0.40057412,-0.29691288,-3.286292,0.00037069534,0.034261644,0.10397464,-0.043954477,-0.03006542,-0.04147831,0.1805874929377171,0.015552420972382594,91.06796884906589
1729620011251578,-0.40108788,-0.29828936,-3.2856407,-0.00016164563,0.033583082,0.10325315,-0.03327131,-0.042410098,-0.04509324,0.1708591336318421,-0.00107852955869102,91.06738806558455
1729620011259578,-0.40117532,-0.29914692,-3.2854047,-0.00034376717,0.03313533,0.10287556,-0.022765191,-0.055969223,-0.047198493,0.16505708945075193,-0.009115067578709356,91.06790713344046
1729620011267578,-0.40126216,-0.2999785,-3.2851524,-0.0005072461,0.032724693,0.10248897,-0.020434868,-0.051329374,-0.04832353,0.15890806772739527,-0.01695747898664118,91.06834450787811
1729620011275578,-0.40134832,-0.3007846,-3.284885,-0.0006531686,0.032352865,0.10210569,-0.018240308,-0.04647858,-0.047910023,0.15232256484396195,-0.02458618714670416,91.06876126804646
1729620011291578,-0.40151793,-0.30232233,-3.2843044,-0.00087937055,0.031647626,0.10138539,-0.014137622,-0.0440774,-0.045018733,0.13864864526646506,-0.03960392457613046,91.06939668373576
1729620011299578,-0.40160105,-0.303055,-3.2839923,-0.0009850479,0.031346094,0.10105216,-0.013209668,-0.037691556,-0.04165433,0.13167334784235368,-0.047140750340464416,91.06973149600299
1729620011307578,-0.40170082,-0.3037414,-3.283666,-0.0010871578,0.031097779,0.10073341,-0.012763731,-0.03103935,-0.03984384,0.12447227967612497,-0.05470706214020305,91.07008698665253
1729620011315578,-0.40179905,-0.30440497,-3.2833257,-0.0011751802,0.03085444,0.10042619,-0.011002804,-0.03041746,-0.038402155,0.11748788855771522,-0.06261143610812618,91.06781892920162
1729620011331578,-0.40199056,-0.30566517,-3.2826478,-0.0013119455,0.03046966,0.09978571,-0.008547831,-0.024048727,-0.040030103,0.10344015939270051,-0.07906478081087091,91.06307168555922
1729620011339578,-0.40208355,-0.30626258,-3.2822895,-0.0013557366,0.030311814,0.099459976,-0.0054738917,-0.019730765,-0.040716488,0.09671167929818196,-0.08738574759409838,91.06063296485561
1729620011347578,-0.40217456,-0.30683872,-3.2819183,-0.0013815705,0.030177278,0.09913413,-0.00322923,-0.016816892,-0.040730458,0.09015865241047637,-0.0956859254690956,91.05819443300712
1729620011355578,-0.4022634,-0.30739397,-3.2815354,-0.001390695,0.030061044,0.098793596,-0.0011405646,-0.01452933,-0.042567026,0.08403295467342754,-0.10392347961810741,91.05576949509633
1729620011371578,-0.40166146,-0.3087545,-3.2813761,-0.0011030306,0.029783886,0.09798725,0.017979022,-0.017322367,-0.050396655,0.07332135646623558,-0.12048338511345104,91.05072188718648
1729620011379578,-0.40098795,-0.3095532,-3.2816014,-0.0007756185,0.029621044,0.09754953,0.040926516,-0.020355217,-0.054715198,0.06847644942605616,-0.1284233653586561,91.04846096818115
1729620011387578,-0.40032902,-0.31032544,-3.281799,-0.0004599529,0.02947141,0.09712712,0.039458197,-0.018704217,-0.05280133,0.0641622450037471,-0.13620962835828376,91.04616602742774
1729620011395578,-0.3996842,-0.31107172,-3.28197,-0.0001444871,0.02936242,0.0967345,0.039433222,-0.013623851,-0.04907697,0.06025039301265352,-0.14397432268050125,91.04383687735697
1729620011411578,-0.3984349,-0.31248862,-3.2822344,0.00047815917,0.029161477,0.096003585,0.038915392,-0.012558884,-0.0456823,0.05312392001538456,-0.15935252083805806,91.03923320543642
1729620011419578,-0.3978295,-0.31316018,-3.2823288,0.000785329,0.02909584,0.0956843,0.038396224,-0.008204719,-0.039910894,0.05009928418767971,-0.16700940740061573,91.03682210174111
1729620011427578,-0.39723626,-0.31380776,-3.282399,0.00110566,0.029050035,0.0953973,0.040041376,-0.005725538,-0.035874546,0.04758480789261106,-0.17480075358014716,91.03439746147603
1729620011435578,-0.3966548,-0.3144317,-3.2824452,0.0014085011,0.02902837,0.09514824,0.037855133,-0.0027082858,-0.03113225,0.04556394257027978,-0.18268841982089243,91.03187708832355
1729620011443578,-0.39608926,-0.31502697,-3.2824872,0.001722984,0.029026091,0.09492242,0.039310366,-0.00028475188,-0.028227454,0.04419936402670167,-0.19054165824317795,91.02937049423201
1729620011451578,-0.39553455,-0.31559944,-3.2825055,0.0020398153,0.029058961,0.09471215,0.039603908,0.0041087624,-0.026283784,0.04357499284421697,-0.19853334580852017,91.02618092310445
1729620011467578,-0.39445636,-0.3166774,-3.282474,0.0026234132,0.029181441,0.094353646,0.03647487,0.0076550054,-0.022406688,0.04482364667438779,-0.21400877383149083,91.0200404243513
1729620011475578,-0.39393225,-0.3171836,-3.2824252,0.002907506,0.029275121,0.09418627,0.03551159,0.011709983,-0.02092216,0.046975429182355755,-0.22147198333620338,91.01700096297044
1729620011491578,-0.39291245,-0.31813237,-3.282264,0.0034714804,0.02950346,0.09396006,0.035248403,0.014271121,-0.014137941,0.05389019156851465,-0.23605339287850724,91.01098367516443
1729620011499578,-0.3922196,-0.31946698,-3.2823753,0.0037780718,0.029258417,0.093797706,0.038323924,-0.030630266,-0.020294448,0.05874271447482723,-0.24335156724046422,91.00819700521708
1729620011507578,-0.39154047,-0.32076174,-3.2824614,0.004064205,0.029030094,0.09365352,0.035766657,-0.028540378,-0.018022954,0.0642658941529979,-0.2501148512540413,91.00581343522799
1729620011515578,-0.39087477,-0.32201764,-3.282523,0.0043351473,0.028841896,0.09353148,0.033867776,-0.02352474,-0.015255063,0.07031995542953874,-0.2566122389531384,91.00348443648393
1729620011531578,-0.3896019,-0.32440984,-3.282575,0.004810944,0.028548416,0.09328539,0.029737303,-0.018342514,-0.015380791,0.08377244537545389,-0.2686353658460829,90.99886728867307
1729620011539578,-0.38898423,-0.32555094,-3.2825665,0.0050329096,0.028432945,0.09318448,0.02774567,-0.014433869,-0.012613832,0.0912939826464645,-0.2744260439091722,90.99651096672758
1729620011547578,-0.38837877,-0.32665646,-3.282536,0.0052373577,0.028336264,0.09305834,0.025556015,-0.012085074,-0.015767291,0.09914956330241563,-0.28048553328971587,90.99421628347946
1729620011555578,-0.38778523,-0.32772726,-3.2824843,0.0054446715,0.02825695,0.092923775,0.025914224,-0.009914161,-0.016820617,0.10729649094949457,-0.28719123383550865,90.9919830605774
1729620011571578,-0.38663313,-0.3297673,-3.2823591,0.005758058,0.028201276,0.09272598,0.019586645,-0.0034796537,-0.012362375,0.12428767152980748,-0.30230322737883014,90.98772154345812
1729620011579578,-0.3860744,-0.33073786,-3.2822654,0.0058862856,0.028213702,0.092675604,0.016028468,0.0015532131,-0.0062966715,0.1328444963780171,-0.310505414688426,90.98569348451261
1729620011587578,-0.38552698,-0.3316763,-3.2821515,0.006003311,0.028256366,0.09266183,0.014628166,0.0053329854,-0.0017220153,0.141592051238209,-0.3190404518359915,90.98372011506727
1729620011595578,-0.38503435,-0.33255208,-3.2820172,0.0060649505,0.028357666,0.09266473,0.0077049476,0.012662494,0.00036321577,0.15034717997296038,-0.3278696525767183,90.98192430386452
1729620011611578,-0.38408032,-0.33421245,-3.2816908,0.0061283694,0.028648304,0.09268049,0.0039636795,0.018164864,0.0009848736,0.16848063513788672,-0.3462141506112633,90.97374214667641
1729620011619578,-0.3836186,-0.3349981,-3.281521,0.006142575,0.02882912,0.092693634,0.0017756828,0.022602033,0.0016428529,0.17765764938266193,-0.35563766723258694,90.96978095916822
1729620011627578,-0.3829182,-0.33579683,-3.2817848,0.0061910893,0.028984793,0.09256597,0.0060643065,0.019459054,-0.015958212,0.1868591859975806,-0.36512458745457393,90.96589505943238
1729620011635578,-0.38223395,-0.33656654,-3.2820196,0.0062291147,0.029161671,0.09241058,0.0047531794,0.022109829,-0.019423664,0.19583287378371234,-0.3745218428574568,90.96184513119977
1729620011651578,-0.3809122,-0.33802083,-3.2824073,0.006302781,0.029613923,0.09207662,0.0046041384,0.028265756,-0.020872334,0.21339173553707827,-0.39240141076840473,90.9541277522397
1729620011659578,-0.38027412,-0.33870625,-3.2825618,0.0062981774,0.029884161,0.09191458,-0.00057544094,0.033779766,-0.020255333,0.22207857797428415,-0.40084300647475324,90.95046024612631
1729620011667578,-0.3796466,-0.3393585,-3.2826905,0.0062858714,0.030184306,0.091785125,-0.0015382537,0.037518095,-0.01618173,0.23061779904719443,-0.40886032792728116,90.94679273309812
1729620011675578,-0.37903383,-0.339984,-3.2827945,0.0062489756,0.03048276,0.09166689,-0.0046119676,0.037306685,-0.014779157,0.23909851270333538,-0.41674942786287067,90.94319362004964
1729620011691578,-0.37785137,-0.34115618,-3.2829695,0.006162443,0.031161638,0.09150827,-0.0054082773,0.04242989,-0.009913928,0.25562989369776484,-0.4320724171935027,90.93614562002035
1729620011699578,-0.37728122,-0.34170362,-3.2830207,0.00608388,0.031532943,0.091447584,-0.009820389,0.046413157,-0.007585622,0.2636523316123308,-0.439478370732671,90.93273093671591
1729620011707578,-0.37672475,-0.34222576,-3.2830486,0.0060161375,0.031914268,0.09140665,-0.008467818,0.04766555,-0.0051166858,0.2714087332088215,-0.44638693999266593,90.92953473491173
1729620011715578,-0.3761817,-0.342723,-3.2830536,0.005928879,0.032318063,0.09141584,-0.0109073,0.05047442,0.0011483207,0.278951541266529,-0.45275100457944595,90.92633158738627
1729620011731578,-0.37513483,-0.34364393,-3.2829955,0.0057287808,0.033188477,0.091487154,-0.012506148,0.054400876,0.00445731,0.293605306135269,-0.4637243212494015,90.92028052259506
1729620011739578,-0.37467682,-0.34407288,-3.2829547,0.005546744,0.03363498,0.09149784,-0.022754597,0.05581276,0.0013355165,0.3008250808349633,-0.46854333927132435,90.91737103057051
1729620011747578,-0.3735705,-0.34478095,-3.282786,0.0056539727,0.033883765,0.09161959,0.013403594,0.031098256,0.015218741,0.3081196699844598,-0.47337292641732015,90.9134299996698
1729620011755578,-0.37249038,-0.34546039,-3.2825978,0.0057442766,0.03415963,0.0917504,0.011287978,0.03448315,0.01635123,0.31485600482034154,-0.47799018670108967,90.91141538885311
1729620011771578,-0.37040594,-0.34673518,-3.2821655,0.005887089,0.034780547,0.092015535,0.008925766,0.03880728,0.016571023,0.32762405199541667,-0.48600244219400374,90.90771392468173
1729620011779578,-0.3694006,-0.3473315,-3.2819219,0.0059200567,0.03512122,0.09215432,0.004120986,0.042584255,0.017347746,0.3335257057493627,-0.48906397187939143,90.90611574886134
1729620011787578,-0.3684191,-0.34790096,-3.281661,0.0059380597,0.035483666,0.092253126,0.0022503664,0.04530558,0.012351199,0.33932482953143106,-0.4917260822557933,90.9047088002925
1729620011795578,-0.3674609,-0.3484442,-3.2813833,0.0059488053,0.035842378,0.09232173,0.0013431999,0.044838987,0.008575618,0.3451180616272542,-0.4943560692644872,90.90339090473448
1729620011811578,-0.36562154,-0.34945464,-3.2808254,0.0059136166,0.036637858,0.092426,-0.0021992892,0.04971749,0.0065169293,0.35720066072615675,-0.5000492462999547,90.90111675577126
1729620011819578,-0.36473915,-0.34992266,-3.2805226,0.00586356,0.037055507,0.09245564,-0.0062570903,0.052206215,0.003704801,0.3634907440530197,-0.5032764743023099,90.90024955685467
1729620011827578,-0.36387804,-0.35036618,-3.280204,0.005804863,0.03747947,0.092506126,-0.0073371334,0.05299551,0.0063106413,0.36987069493106256,-0.5065246221731232,90.89958751368447
1729620011835578,-0.3630377,-0.3507856,-3.2798707,0.005728336,0.037916347,0.09253504,-0.009565847,0.054609492,0.0036144627,0.3763044672358036,-0.5095627884080494,90.89900721073828
1729620011851578,-0.36141768,-0.35155377,-3.279161,0.0055289576,0.038832054,0.09251103,-0.012461154,0.05723163,-0.0015008262,0.38963579642492263,-0.514674802233911,90.89822239343736
1729620011859578,-0.3606372,-0.35190338,-3.2788095,0.005402452,0.039306127,0.09249479,-0.015813217,0.05925912,-0.002029352,0.39664149323064113,-0.516773836413339,90.89823632038294
1729620011867578,-0.3598759,-0.3522305,-3.2784443,0.0052663065,0.039791193,0.09246221,-0.017018173,0.060633287,-0.0040726736,0.40391624118693753,-0.5187036570853701,90.89815468605929
1729620011875578,-0.35942823,-0.35247907,-3.2789981,0.0049810684,0.040278364,0.092167445,-0.035654753,0.060896385,-0.036845915,0.41122599655810665,-0.5206458585748585,90.89818221872237
1729620011891578,-0.35857674,-0.3529084,-3.2799988,0.0043996656,0.041311994,0.09154377,-0.036337674,0.06460188,-0.038979575,0.426068654682631,-0.5241872454238302,90.89889997283372
1729620011899578,-0.35817254,-0.35308972,-3.280448,0.0040667932,0.041860025,0.09121106,-0.041609045,0.068503894,-0.041589137,0.43328981745419837,-0.5257457679115107,90.89887297576092
1729620011907578,-0.3577798,-0.35325187,-3.2808645,0.0037385644,0.042413086,0.090933934,-0.0410286,0.06913254,-0.034640543,0.44020572944905495,-0.5271962838488968,90.89903016456094
1729620011915578,-0.35739827,-0.35339516,-3.2812486,0.003409457,0.04297685,0.090692274,-0.041138437,0.070470385,-0.030207446,0.4469284756596531,-0.5284022902934812,90.89916707885307
1729620011931578,-0.35666916,-0.3536263,-3.281962,0.002646875,0.044098347,0.09031198,-0.04766136,0.07009366,-0.023768282,0.45993192767846824,-0.5298463499111195,90.90021238882959
1729620011939578,-0.35632154,-0.35371462,-3.2822719,0.002253247,0.04468272,0.09019089,-0.049203515,0.07304642,-0.015136785,0.465949852672299,-0.5300809876184585,90.90083410049846
1729620011947578,-0.3559851,-0.35378495,-3.2825515,0.0018454144,0.045280565,0.090116374,-0.050979067,0.07473072,-0.009314157,0.47156313631218716,-0.5299949662428005,90.90155148088917
1729620011955578,-0.35565975,-0.35383755,-3.2828014,0.0014467197,0.04588882,0.09008499,-0.04983683,0.076031774,-0.0039227307,0.47681964255806764,-0.5294668846725009,90.90241895203077
1729620011971578,-0.3550251,-0.3539043,-3.2832139,0.0006147528,0.047116637,0.090154134,-0.05199793,0.07673865,0.0043213367,0.48635632151904884,-0.5276216945910638,90.90462513800935
1729620011979578,-0.3547241,-0.35391176,-3.283398,0.00019463632,0.047736213,0.0902198,-0.05251456,0.07744692,0.008208677,0.4904843321398757,-0.5263517059349684,90.90614825218708
1729620011987578,-0.354434,-0.3539023,-3.283554,-0.00024988494,0.048364114,0.09030813,-0.055565152,0.07848767,0.011040828,0.4941602602385641,-0.5247498524661952,90.90777391791481
1729620011995578,-0.35397774,-0.3542647,-3.2834997,-0.000600872,0.048859745,0.090393156,-0.043873377,0.061953902,0.010628252,0.4974361859596998,-0.5229083458320825,90.9094267929956
1729620012011578,-0.35310784,-0.3549128,-3.2833276,-0.0013536501,0.049902778,0.09061337,-0.047048632,0.06518955,0.01376355,0.5026366210445924,-0.5182403591920829,90.91374375618291
1729620012019578,-0.3526938,-0.35519943,-3.2832105,-0.0017240979,0.05042413,0.09075061,-0.046305966,0.06516883,0.017154962,0.5048825238518703,-0.5154305825300096,90.91614782856672
1729620012027578,-0.35229346,-0.35546178,-3.2830737,-0.0021246688,0.050951313,0.09089231,-0.050071362,0.06589805,0.017711893,0.5067903530677222,-0.5121754396196534,90.91856566667822
1729620012035578,-0.35190657,-0.3557004,-3.2829175,-0.0025126617,0.051470432,0.09102896,-0.048499115,0.0648899,0.017081387,0.5083773677404355,-0.5087184796587406,90.92086051512773
1729620012051578,-0.35120666,-0.3561346,-3.2825925,-0.0033855806,0.052472565,0.09132889,-0.054557428,0.062633306,0.01874566,0.51031140950771,-0.5016863664589347,90.92648168891704
1729620012059578,-0.35087594,-0.3563179,-3.2824016,-0.0038179706,0.05296767,0.09147901,-0.05404875,0.061888244,0.018765219,0.5108553924900604,-0.49807930232560194,90.92971922868415
1729620012067578,-0.35055757,-0.35647938,-3.2821925,-0.004246558,0.05347392,0.09160369,-0.053573426,0.06328104,0.015584751,0.511115465382826,-0.49441290068844845,90.93301140112733
1729620012075578,-0.35025135,-0.35661927,-3.2819657,-0.0046791323,0.05398897,0.09171391,-0.054071773,0.0643814,0.013777985,0.5111696724539724,-0.4905907883973174,90.93642661287092
1729620012091578,-0.3496746,-0.356836,-3.2814612,-0.005574448,0.05503976,0.091901466,-0.055957235,0.065674305,0.011722091,0.5107230445203234,-0.48271374867970696,90.943263686982
1729620012099578,-0.34940392,-0.35691366,-3.2812088,-0.0060452353,0.055569213,0.0919495,-0.058848407,0.066181645,0.006004236,0.5102950548999868,-0.4790666193682326,90.94681547774391
1729620012107578,-0.3491447,-0.35697144,-3.2809403,-0.006498936,0.05608446,0.09199276,-0.056712594,0.064406075,0.0054072584,0.5094894862636985,-0.475828943929755,90.95033323048234
1729620012115578,-0.34889665,-0.3570097,-3.2806563,-0.0069471905,0.056624297,0.09199973,-0.056031797,0.06747944,0.0008717179,0.5083862197783593,-0.4728305482186785,90.95390550233766
1729620012131578,-0.34871534,-0.3574883,-3.2812781,-0.007993472,0.057642303,0.09182551,-0.065392576,0.063625395,-0.010889023,0.5061434578143983,-0.46699758393118895,90.96108458224306
1729620012139578,-0.3486364,-0.35769057,-3.281543,-0.008504976,0.05815769,0.09173457,-0.06393797,0.06442331,-0.011366791,0.5051948097199362,-0.46423964390254435,90.96478689037528
1729620012147578,-0.34856513,-0.3578688,-3.2817786,-0.009043866,0.058678497,0.09162899,-0.06736128,0.06510084,-0.013197771,0.5041527280987192,-0.4614840529032486,90.96844121696896
1729620012155578,-0.3485016,-0.35802352,-3.281985,-0.009559418,0.059186045,0.09155372,-0.06444403,0.06344356,-0.009409152,0.5029393300502397,-0.45849686945093965,90.97210242740489
1729620012171578,-0.3483973,-0.3582643,-3.282356,-0.01062443,0.060251568,0.09138911,-0.06656325,0.06659515,-0.010287854,0.49987078768267557,-0.45237784049437213,90.97932233940419
1729620012179578,-0.34835643,-0.35835102,-3.2825005,-0.011139849,0.06078926,0.091335595,-0.064427376,0.06721169,-0.0066896896,0.49794683886507807,-0.4490343594504782,90.98288798735193
1729620012187578,-0.34832296,-0.358416,-3.2826185,-0.011675246,0.06131119,0.091298,-0.0669246,0.06524101,-0.0046994537,0.4959435684565236,-0.44551473043309914,90.98648071513355
1729620012195578,-0.34833136,-0.35845536,-3.2827106,-0.012227465,0.06181505,0.09128403,-0.06902742,0.06298255,-0.0017462297,0.49358504992532753,-0.4419025459441343,90.99001892163143
1729620012211578,-0.34836888,-0.35847247,-3.2828186,-0.013352012,0.0628578,0.09133531,-0.07028417,0.06517185,0.0032051464,0.4884027941346945,-0.4349635109180628,90.9954354354863
1729620012219578,-0.34839803,-0.35845086,-3.2828581,-0.013934845,0.06339793,0.09137317,-0.0728541,0.06751623,0.00473205,0.48553100846406244,-0.43166520895750177,90.99800350906402
1729620012227578,-0.34843403,-0.3584096,-3.2828734,-0.014480437,0.06392413,0.09139652,-0.068199,0.06577466,0.0029187647,0.4826285141186575,-0.42820199210424353,91.00055127075241
1729620012235578,-0.3484767,-0.3583492,-3.2828648,-0.015042664,0.06444493,0.091432,-0.070278294,0.06510038,0.004434958,0.47988087450471695,-0.42467444854003883,91.00307836325703
1729620012251578,-0.34846047,-0.35886315,-3.2837245,-0.016135428,0.06518964,0.091325365,-0.06829778,0.04654424,-0.006664544,0.4744254668499544,-0.41760549203727565,91.00813948965137
1729620012259578,-0.34840474,-0.35942316,-3.2845702,-0.01668013,0.06541143,0.091180325,-0.06808782,0.02772454,-0.018130057,0.4714101257420153,-0.41398246152903295,91.01147273339218
1729620012267578,-0.3483639,-0.3599489,-3.285371,-0.01720931,0.065658994,0.091048665,-0.06614742,0.030945053,-0.016457401,0.4682022350393079,-0.41032512076777,91.0147514604908
1729620012275578,-0.3483326,-0.36044285,-3.286129,-0.017754469,0.065916985,0.090938576,-0.06814487,0.032248907,-0.013761221,0.4648053982103871,-0.4065922474889409,91.01748366052888
1729620012291578,-0.34829828,-0.36133826,-3.2875516,-0.018817294,0.06645615,0.09086496,-0.06642658,0.03369758,-0.004601199,0.457380478996216,-0.39856588338928806,91.02300915209187
1729620012299578,-0.34829488,-0.3617412,-3.2882006,-0.01934511,0.06672868,0.090891995,-0.065976985,0.03406685,0.0033797694,0.45336992677069443,-0.3946196203788117,91.0256318934691
1729620012307578,-0.34830037,-0.3621153,-3.288809,-0.019858507,0.066994846,0.09095543,-0.064174645,0.033270568,0.00792928,0.44913942643937865,-0.3907667695852959,91.02815231596493
1729620012315578,-0.34831458,-0.3624613,-3.2893777,-0.020369701,0.06726419,0.09105421,-0.063899204,0.033668242,0.012347474,0.4447565856597266,-0.38725511763865017,91.03059749208703
1729620012331578,-0.3483684,-0.36307135,-3.2903996,-0.021357197,0.06783157,0.09133779,-0.061718512,0.03546104,0.017724,0.4355458339346369,-0.38165930582365887,91.035290036782
1729620012339578,-0.34838068,-0.36332217,-3.2908723,-0.021808028,0.06813701,0.091538176,-0.05635386,0.0381805,0.025047919,0.43073395659491254,-0.3796270929359948,91.03766020912491
1729620012347578,-0.3484013,-0.36354744,-3.2913077,-0.022276888,0.06846425,0.0917818,-0.05860743,0.040904615,0.030453315,0.42576306608515857,-0.37802625903911624,91.03994873928407
1729620012355578,-0.34843016,-0.3637477,-3.2917066,-0.022723867,0.06878124,0.09205487,-0.055872366,0.039624047,0.034133904,0.42074660593908325,-0.37678500531222464,91.04206622864244
1729620012371578,-0.34894988,-0.36454573,-3.2926035,-0.023804326,0.06918213,0.09264224,-0.06752868,0.02505537,0.036710408,0.41029464872075133,-0.3749809160944283,91.04613078601804
1729620012379578,-0.34943122,-0.3651348,-3.2930977,-0.024437387,0.06928838,0.09294894,-0.07913261,0.01328159,0.038337894,0.40495343709976717,-0.3741793389126985,91.0497307696066
1729620012387578,-0.34991089,-0.36569157,-3.2935534,-0.025059775,0.069418065,0.09327937,-0.07779849,0.0162106,0.04130322,0.3996080906278543,-0.3736899561085422,91.05322843964647
1729620012395578,-0.35038915,-0.36621687,-3.2939708,-0.025684994,0.06955027,0.093635134,-0.078152396,0.016525388,0.04447065,0.39436668835623645,-0.373465729038482,91.0567126399473
1729620012411578,-0.3513277,-0.36716,-3.2947319,-0.02686874,0.06985424,0.0944083,-0.073984146,0.01899805,0.048323065,0.3841260779651496,-0.37424614812545803,91.06330512256953
1729620012419578,-0.35179523,-0.36758736,-3.2950575,-0.027440457,0.07002677,0.09482607,-0.07146457,0.021566635,0.052221116,0.3788790607959837,-0.3752940442907948,91.06636566315017
1729620012427578,-0.35226163,-0.36798593,-3.295348,-0.027997024,0.07023155,0.09526197,-0.06957096,0.0255974,0.054487024,0.373458379319231,-0.37667403901995145,91.06939907848269
1729620012435578,-0.35272703,-0.36835626,-3.2956033,-0.028552726,0.07044034,0.095711574,-0.069462694,0.02609845,0.056200657,0.36766134179437016,-0.3784822908256235,91.07234365229777
1729620012443578,-0.35319147,-0.36869898,-3.2958248,-0.029093064,0.070654504,0.09616747,-0.06754231,0.026770866,0.056986693,0.3616598661798325,-0.3807102887330425,91.07523365811603
1729620012459578,-0.3541178,-0.36930388,-3.2961884,-0.030151632,0.07112512,0.09712495,-0.066160455,0.029413493,0.059842594,0.34859639125636793,-0.3858102062640932,91.08078844162495
1729620012467578,-0.3545798,-0.36956713,-3.2963314,-0.03064114,0.071384095,0.09759402,-0.06118859,0.03237184,0.058634203,0.3415479721414983,-0.3882366863241536,91.08343943280663
1729620012475578,-0.355041,-0.36980477,-3.2964427,-0.03113375,0.07167115,0.09804858,-0.06157625,0.035881996,0.056819987,0.33425037936974905,-0.39031391218722333,91.08608340234971
1729620012491578,-0.35600463,-0.37022007,-3.296574,-0.03211857,0.07224802,0.09891477,-0.06155122,0.03605429,0.054136846,0.31876988824267394,-0.39362905943127674,91.09100933572886
1729620012499578,-0.35681635,-0.37096423,-3.2969904,-0.032676898,0.07233834,0.099206015,-0.06979098,0.011290423,0.0364054,0.31087412069142273,-0.39513445811442555,91.09333916863939
1729620012507578,-0.357619,-0.37167156,-3.2973688,-0.033217676,0.07244877,0.09949139,-0.067597255,0.013803131,0.035671517,0.30297520242376663,-0.3963484197941179,91.0965502182135
1729620012515578,-0.3584129,-0.37234274,-3.2977104,-0.033754192,0.07260174,0.09977437,-0.06706454,0.019121915,0.035372563,0.29505882377523723,-0.39770520541396037,91.09965876696381
1729620012531578,-0.35997534,-0.3735799,-3.298323,-0.034747735,0.07291757,0.10037842,-0.062096395,0.01973938,0.037753023,0.27903867947551,-0.4004108797243828,91.10579385235386
1729620012539578,-0.36074418,-0.37414736,-3.2985766,-0.035239432,0.07309369,0.10068103,-0.061462164,0.022014601,0.037826598,0.27096578379374037,-0.4018800467341195,91.1086361358083
1729620012547578,-0.36149365,-0.37467116,-3.2987962,-0.035692114,0.073267594,0.10100617,-0.056585293,0.021737998,0.040642913,0.2627443963156863,-0.40330302904563026,91.11146443154486
1729620012555578,-0.36223534,-0.3751628,-3.2989824,-0.03610516,0.073473856,0.101335265,-0.051630657,0.025782732,0.041136514,0.25440635727477817,-0.4048390593939222,91.11373983838617
1729620012571578,-0.3636959,-0.37605202,-3.2992587,-0.03691652,0.07394767,0.10197431,-0.050710045,0.029613262,0.03994023,0.23758296763002928,-0.40800928074164305,91.11848133828603
1729620012579578,-0.3644152,-0.3764506,-3.2993693,-0.0373067,0.07423117,0.10228714,-0.04877243,0.035437755,0.039104372,0.22887060078167487,-0.4099813346644903,91.12068825872
1729620012587578,-0.36512738,-0.37681934,-3.2994494,-0.037683938,0.07450071,0.10258641,-0.04715472,0.033692457,0.037408434,0.2197289341706359,-0.4122239355947415,91.12266982150746
1729620012595578,-0.3658326,-0.37715894,-3.2995,-0.038033854,0.07478097,0.102910705,-0.04373956,0.03503263,0.040536743,0.21029453262831824,-0.4146421523201116,91.12458296104279
1729620012611578,-0.36722225,-0.37775317,-3.2995138,-0.038679294,0.075374484,0.10360597,-0.040340003,0.03709458,0.04345411,0.1904958509895692,-0.41991253008864105,91.12786968086613
1729620012619578,-0.36790693,-0.37800884,-3.2994785,-0.03898226,0.07569615,0.10397205,-0.037870836,0.040207986,0.0457596,0.18035858225720686,-0.42277256237380495,91.12951642311944
1729620012627578,-0.36921933,-0.37836504,-3.29949,-0.039438453,0.075990595,0.10432428,-0.057023946,0.03680587,0.044029202,0.17006615558082835,-0.4256997255179269,91.13097222263475
1729620012635578,-0.37050974,-0.37869173,-3.299473,-0.039873432,0.076297075,0.10466964,-0.05437247,0.038309954,0.04316959,0.15981835522217971,-0.4286619488346251,91.13266677041392
1729620012651578,-0.37302652,-0.37925905,-3.299397,-0.040674556,0.07695612,0.105299614,-0.050070226,0.04119053,0.03937352,0.13977957916578798,-0.43400594956131944,91.13550291919805
1729620012659578,-0.37425378,-0.37950072,-3.2993186,-0.04102444,0.07731063,0.10557816,-0.04373537,0.044313256,0.034818426,0.12978616234228715,-0.436275532128975,91.13680125002296
1729620012667578,-0.37546083,-0.37971494,-3.2992146,-0.04135804,0.07768465,0.10581825,-0.041699965,0.04675239,0.030010937,0.11946248075197632,-0.4382764356215073,91.13803791667488
1729620012675578,-0.37664816,-0.37990224,-3.2990856,-0.041671827,0.07806941,0.10606041,-0.039223578,0.048095357,0.030269844,0.10896367204164305,-0.439927735707331,91.13912461632306
1729620012691578,-0.37896478,-0.38019785,-3.2987554,-0.042205077,0.0788804,0.10653025,-0.033328075,0.05068676,0.029365065,0.08683428103141358,-0.4423246161754369,91.14110612492885
1729620012699578,-0.3801004,-0.38030225,-3.2985768,-0.042465076,0.07928848,0.106743,-0.0324999,0.051010396,0.026593914,0.07510221112893865,-0.44304962504336187,91.14193974372155
1729620012707578,-0.38121778,-0.3803817,-3.2983751,-0.04270687,0.079712704,0.10695147,-0.03022421,0.05302764,0.026058404,0.06319144172232713,-0.4437111059816186,91.14243177472937
1729620012715578,-0.38231733,-0.3804366,-3.298151,-0.0429216,0.08015332,0.10712386,-0.02684118,0.055077482,0.02154894,0.05103059111574302,-0.4442892881828476,91.14282799500913
1729620012731578,-0.38446435,-0.38047433,-3.2976391,-0.043324336,0.08108143,0.107447036,-0.025171086,0.05800649,0.020198522,0.026654924710722675,-0.44498564160100523,91.14331995803808
1729620012739578,-0.38551265,-0.38045797,-3.297352,-0.043483246,0.08153596,0.10760721,-0.019863712,0.05681626,0.02002157,0.014683374892388187,-0.44484148291067116,91.14327905197283
1729620012747578,-0.38708928,-0.3806986,-3.2972503,-0.043714713,0.08191005,0.107704304,-0.028933397,0.046761703,0.012136995,0.0027345190306472117,-0.444286860191045,91.14334720602945
1729620012755578,-0.38863572,-0.3809102,-3.2971234,-0.043945648,0.08229795,0.10779635,-0.028866807,0.048487443,0.011505558,-0.009355371728205967,-0.44341086214571207,91.14351117099102
1729620012771578,-0.39163685,-0.38125515,-3.2968392,-0.044338237,0.08309649,0.1079064,-0.024536856,0.04990864,0.0068782824,-0.03451459319193399,-0.4403323296311905,91.14361989022355
1729620012779578,-0.39309493,-0.38138634,-3.2966623,-0.04447612,0.08350455,0.10792222,-0.017235521,0.051007602,0.0019771978,-0.04753923384889958,-0.43839252555422853,91.14362651476453
1729620012787578,-0.39452532,-0.38149083,-3.2964633,-0.044596627,0.08389984,0.10793359,-0.01506321,0.049411315,0.0014211981,-0.06061242779736524,-0.43631867562937987,91.14348959341318
1729620012795578,-0.39592868,-0.3815692,-3.2962425,-0.044703033,0.084305234,0.10794914,-0.013300682,0.05067419,0.0019436701,-0.07383067045460696,-0.4342816196410511,91.14327065567699
1729620012811578,-0.3986565,-0.38164994,-3.295738,-0.044842392,0.0851018,0.10795912,-0.008709962,0.04978524,0.00062398607,-0.10074693627204039,-0.42997719737884743,91.14277118314259
1729620012819578,-0.39998186,-0.38165337,-3.2954783,-0.044858556,0.08551281,0.10795015,-0.0020205043,0.051376406,-0.0011213124,-0.11423671974431222,-0.4278398752523372,91.14236779414715
1729620012827578,-0.40128204,-0.3816329,-3.295199,-0.044844933,0.0859077,0.10794299,0.0017029232,0.049361024,-0.00089500094,-0.12777771735500018,-0.4257958844295462,91.1419097732095
1729620012835578,-0.40257442,-0.38158435,-3.2949002,-0.044830266,0.086353615,0.10793681,0.0018333084,0.055739652,-0.0007729977,-0.14145831095692532,-0.42384909360114503,91.1413493172021
1729620012851578,-0.40508598,-0.3814187,-3.2942467,-0.044697765,0.087211296,0.1078905,0.00828132,0.05360506,-0.0028940847,-0.16864637296896998,-0.4195206374701836,91.13938113180448
1729620012859578,-0.4063061,-0.38130262,-3.2938933,-0.044613056,0.087627865,0.107843734,0.010588671,0.052071173,-0.0058459113,-0.18214084823386945,-0.4169221881960063,91.13839700601946
1729620012867578,-0.40750298,-0.3811651,-3.293523,-0.044496194,0.08805691,0.1077572,0.014607794,0.053630207,-0.010816379,-0.1954543375461302,-0.41396141012309534,91.13739908722656
1729620012875578,-0.4089784,-0.38093498,-3.293603,-0.044447247,0.088518724,0.10755025,0.006118323,0.057727095,-0.025869345,-0.20844136318173637,-0.4107041526345779,91.1362167180044
1729620012891578,-0.41184074,-0.38041803,-3.293722,-0.044262026,0.089411415,0.107064866,0.011576339,0.055793203,-0.030336434,-0.23387465084282086,-0.40401802885792265,91.13366753143853
1729620012899578,-0.4132289,-0.38013205,-3.2937417,-0.04414032,0.08985487,0.106821425,0.015213153,0.055432316,-0.030430032,-0.2465589212934801,-0.4005159498101447,91.13221883346529
1729620012907578,-0.4145848,-0.379829,-3.2937357,-0.04399398,0.090310015,0.10658143,0.018292572,0.05689263,-0.02999976,-0.2592203030052376,-0.3969743042364917,91.13076324004305
1729620012915578,-0.4159133,-0.37950838,-3.293705,-0.043834656,0.09074488,0.10636379,0.0199154,0.0543585,-0.027204862,-0.27186351959622485,-0.3934371959590897,91.129410150433
1729620012931578,-0.41849023,-0.3788158,-3.293571,-0.043420274,0.091638565,0.10600592,0.025898915,0.055855136,-0.022366641,-0.2966462663174386,-0.38544235489308426,91.12649870059504
1729620012939578,-0.41973943,-0.3784445,-3.2934906,-0.043181453,0.09208325,0.105843924,0.029852612,0.055585984,-0.020249745,-0.3088284230602147,-0.3812067690827348,91.12492688451631
1729620012947578,-0.42096308,-0.37805694,-3.2933867,-0.04292498,0.09251627,0.105721086,0.032058917,0.054127533,-0.015354714,-0.3209063801721466,-0.376644743278683,91.12340287310032
1729620012955578,-0.42216164,-0.37765357,-3.2932599,-0.04264499,0.09294197,0.105604716,0.034999102,0.053212043,-0.014546326,-0.3328890483989463,-0.3721301319801585,91.12191300830521
1729620012963578,-0.42333546,-0.37723467,-3.2931108,-0.042330105,0.093369976,0.1055138,0.039360482,0.053500753,-0.011363997,-0.34490355360194314,-0.3674558640353825,91.12025904811199
1729620012979578,-0.42563683,-0.37636358,-3.2927482,-0.041687503,0.09417451,0.10534256,0.040162586,0.0502835,-0.010702758,-0.3690778689207793,-0.35758775069316256,91.11690346393723
1729620012987578,-0.4267518,-0.375906,-3.2925353,-0.04133566,0.09458594,0.10525681,0.043980308,0.05142856,-0.010718591,-0.3811664160366569,-0.3525485751473288,91.11517452346197
1729620012995578,-0.42763498,-0.3760317,-3.2928085,-0.040871587,0.09479998,0.10506418,0.058009285,0.026755033,-0.024078412,-0.3931406510394722,-0.34726601900508497,91.11332929216098
1729620013011578,-0.42934597,-0.37619865,-3.2932966,-0.03982967,0.09526397,0.104641706,0.0651197,0.02899952,-0.026404856,-0.4164509671264925,-0.33554416573819,91.11013755370702
1729620013019578,-0.43017378,-0.3762412,-3.2934935,-0.03924982,0.09549741,0.10446004,0.07248157,0.029179266,-0.022708436,-0.4277311285285656,-0.32919849306112026,91.10835392234688
1729620013027578,-0.43098336,-0.37625748,-3.2936602,-0.03868004,0.09570446,0.10430592,0.071222425,0.025881452,-0.019264407,-0.4387021318095277,-0.32279052463749575,91.1066656353818
1729620013035578,-0.431775,-0.37624827,-3.2937973,-0.038076222,0.0959154,0.10416352,0.075477175,0.026367603,-0.017800368,-0.4494136314369562,-0.3163755965539791,91.10497091725357
1729620013051578,-0.43333063,-0.37614688,-3.2939851,-0.036851425,0.096397765,0.103933126,0.07654982,0.030147841,-0.014399643,-0.46953468884868965,-0.3037459916167516,91.10132139176291
1729620013059578,-0.4340947,-0.37605605,-3.2940586,-0.03623628,0.096644044,0.10384297,0.07689325,0.030784866,-0.011269002,-0.4788933976244428,-0.2976250172921919,91.09890240938803
1729620013067578,-0.43484113,-0.37594208,-3.2941043,-0.035598222,0.09687969,0.103782766,0.079757065,0.029455869,-0.0075260173,-0.48775734508438634,-0.29170962171268955,91.09652446923894
1729620013075578,-0.4355701,-0.37580562,-3.294123,-0.034948424,0.097124234,0.10375127,0.08122483,0.030567868,-0.0039367005,-0.49599542918963535,-0.286127365196327,91.09410562259114
1729620013091578,-0.4369763,-0.37546745,-3.2940814,-0.033605944,0.09758726,0.10375998,0.083904944,0.028938984,0.00054435804,-0.5106318656711495,-0.2762455632801448,91.0892678708501
1729620013099578,-0.43765378,-0.3752669,-3.2940226,-0.032897938,0.09780959,0.10376509,0.08850078,0.027791595,0.0006388872,-0.5171323278003135,-0.2718421219694899,91.08686294802719
1729620013107578,-0.43831426,-0.37504613,-3.2939394,-0.032176588,0.09804881,0.1037445,0.09016878,0.029902903,-0.0025741754,-0.5232096466206243,-0.26773798655253805,91.08454667449806
1729620013115578,-0.43895257,-0.37480804,-3.2938323,-0.03144955,0.09827698,0.10372816,0.09087985,0.02852082,-0.0020423904,-0.5287556015756586,-0.2638165353244142,91.08216900578586
1729620013131578,-0.44005126,-0.37436593,-3.2950394,-0.029956019,0.098383255,0.10330824,0.09334564,0.006642192,-0.026245134,-0.5381282609278021,-0.25614319236052546,91.0800506490785
1729620013139578,-0.44057915,-0.3741195,-3.2955823,-0.029231558,0.09842556,0.10312677,0.09055761,0.005288049,-0.02268329,-0.5418464242560748,-0.2522057630029866,91.08000915984955
1729620013147578,-0.4410929,-0.3738568,-3.2960863,-0.028479319,0.098466896,0.10293797,0.094029814,0.005166977,-0.023600644,-0.5449110333352875,-0.2481796482667352,91.08009085084
1729620013155578,-0.4415927,-0.3735783,-3.2965524,-0.027724912,0.09850205,0.10277844,0.09430083,0.00439398,-0.019940546,-0.5474030134084684,-0.24436714019113093,91.080172477407
1729620013171578,-0.44255105,-0.37297478,-3.2973745,-0.026204638,0.098646194,0.10259693,0.095017135,0.009009149,-0.011344439,-0.5511287554004413,-0.23725999877674353,91.08019238508585
1729620013179578,-0.44300982,-0.37265036,-3.2977512,-0.02542921,0.09871201,0.10256378,0.09692856,0.008227304,-0.004143454,-0.5523562753031132,-0.2341948187228185,91.08031511450895
1729620013187578,-0.44344175,-0.37231627,-3.2980921,-0.024633117,0.09876587,0.10256477,0.09951158,0.0067325304,0.00012293458,-0.5530715909831276,-0.2313152565774188,91.08032857940336
1729620013195578,-0.4438606,-0.37196788,-3.2983983,-0.023841143,0.09883367,0.102602445,0.09899679,0.008475035,0.0047096983,-0.553436819335082,-0.22861909772651137,91.08083399195314
1729620013211578,-0.44465974,-0.37122947,-3.298909,-0.022271618,0.0989838,0.1027571,0.09809527,0.009383075,0.009665731,-0.5534413499712701,-0.2238842989717628,91.08189249093333
1729620013219578,-0.44504032,-0.37083995,-3.299115,-0.021466255,0.09906452,0.102886066,0.100670375,0.010089948,0.016121194,-0.5531162631618795,-0.22161060252803214,91.08237052248877
1729620013227578,-0.4454083,-0.37043735,-3.2992885,-0.020662177,0.09914694,0.10302547,0.100509726,0.010302289,0.017425977,-0.5526753879649758,-0.21933976125983923,91.08288263444663
1729620013235578,-0.44576398,-0.3700219,-3.2994308,-0.019872852,0.0992381,0.10317396,0.09866571,0.011394731,0.018560328,-0.5518991531176024,-0.2168763796581852,91.08343591398737
1729620013251578,-0.44614848,-0.36946058,-3.300011,-0.018156163,0.099277504,0.103490464,0.10729301,0.0024628823,0.019781755,-0.5491385516059125,-0.21132042220411348,91.0847060459202
1729620013259578,-0.44617513,-0.36930302,-3.3004196,-0.017229421,0.09919355,0.103660986,0.11584279,-0.010494142,0.021315178,-0.547160781563997,-0.20825125879529208,91.08602423858038
1729620013267578,-0.4461963,-0.36912805,-3.3007905,-0.016315682,0.09913336,0.10380805,0.11421739,-0.0075241546,0.018383376,-0.5447118218159576,-0.20516923593603242,91.08736311199071
1729620013275578,-0.44621214,-0.36893594,-3.3011246,-0.01541827,0.09909721,0.10395846,0.112176515,-0.004518777,0.018800609,-0.5420158328148006,-0.20202189958036498,91.08872240727761
1729620013291578,-0.44622758,-0.36850137,-3.3016853,-0.013637769,0.09906187,0.104356796,0.11128128,-0.0022086315,0.024896113,-0.5355913543707987,-0.19608536214596017,91.09139995761501
1729620013299578,-0.44622725,-0.3682597,-3.3019326,-0.012773688,0.099042766,0.10458779,0.10801013,-0.002387911,0.028874723,-0.531895178846047,-0.1935222121232839,91.09261564752799
1729620013307578,-0.4462216,-0.36800218,-3.3021452,-0.011914131,0.09905366,0.10483398,0.107444584,0.0013615935,0.03077369,-0.527911368314345,-0.19115737920025783,91.0938111105765
1729620013315578,-0.4462106,-0.36772913,-3.3023243,-0.011068063,0.09903976,0.10510736,0.10575854,-0.0017369165,0.034172088,-0.523561272044166,-0.18889026419548774,91.09504058789042
1729620013331578,-0.4461317,-0.367134,-3.3025842,-0.0093031125,0.099047616,0.10571206,0.11030939,0.000490807,0.037794,-0.5138750013343976,-0.18432599275395645,91.0975612636439
1729620013339578,-0.4460844,-0.3668147,-3.3026662,-0.008448928,0.09906025,0.106025316,0.1067731,0.001579523,0.039156526,-0.5084901865566811,-0.1818523177264184,91.09881103037533
1729620013347578,-0.446032,-0.36648118,-3.3027174,-0.0076117474,0.09909505,0.10635434,0.10464753,0.0043492764,0.041128132,-0.5029254769502924,-0.17937189285687896,91.10005422950768
1729620013355578,-0.44597444,-0.36613375,-3.3027382,-0.006778407,0.099129274,0.10667962,0.10416755,0.004278496,0.040659677,-0.4972190704207031,-0.17691918941872373,91.10131115190222
1729620013371578,-0.44550604,-0.36554047,-3.303178,-0.0049604,0.09914184,0.10716636,0.11362542,0.00078557053,0.030421184,-0.4854611887861091,-0.1726536497321362,91.10342175913058
1729620013379578,-0.4451022,-0.36529225,-3.303566,-0.0039871517,0.09912086,0.10734536,0.121656045,-0.0026226041,0.022375023,-0.47944607961889696,-0.17052039332922936,91.10409125952445
1729620013387578,-0.44470012,-0.36502844,-3.3039157,-0.003018211,0.09910122,0.107504725,0.12111756,-0.002454966,0.019920988,-0.47321710436628167,-0.16810676469260605,91.10458983868685
1729620013395578,-0.44429803,-0.36475208,-3.3042285,-0.0020498936,0.09908802,0.10765604,0.12103968,-0.0016503035,0.01891423,-0.4668987289363764,-0.1654647109294428,91.10499281247935
1729620013411578,-0.4434979,-0.36415476,-3.304747,-0.0001816049,0.099083334,0.10796158,0.11676804,-0.00029290095,0.019096304,-0.45330532770308674,-0.15987372499108146,91.10620856243214
1729620013419578,-0.44309956,-0.36383444,-3.3049734,0.00072532863,0.099071145,0.108130075,0.11336669,-0.0015236436,0.021061858,-0.4459391651685555,-0.1571775775375466,91.10672756201971
1729620013427578,-0.44270238,-0.3635002,-3.3051655,0.0016102055,0.09904773,0.1083195,0.110609606,-0.0029271466,0.023677943,-0.43809690456805434,-0.15459090061994174,91.10715089029812
1729620013435578,-0.44230622,-0.36315247,-3.3053243,0.002482358,0.099030174,0.10852602,0.10901904,-0.002194196,0.025815329,-0.4298191001741643,-0.151937842882921,91.10754013973522
1729620013443578,-0.44191098,-0.36279145,-3.3054504,0.0033322417,0.09902468,0.108765125,0.10623547,-0.0006863847,0.029888002,-0.4209872926128671,-0.14913127911760243,91.10773804683842
1729620013459578,-0.4411232,-0.36203024,-3.3056073,0.0049771913,0.09906027,0.109303236,0.10280935,0.0022239983,0.03363192,-0.4026574643475279,-0.14323273789820015,91.108052111768
1729620013467578,-0.44074866,-0.3616264,-3.3056393,0.00576249,0.09907626,0.1095865,0.09816232,0.0019995496,0.035407953,-0.39331869327040625,-0.14044921383824754,91.10812703189245
1729620013475578,-0.4403746,-0.36121032,-3.3056412,0.006523566,0.09908983,0.10988917,0.09513448,0.0016959383,0.03783405,-0.38379922168026714,-0.13777397293331659,91.1074575984422
1729620013491578,-0.4396279,-0.3603424,-3.305597,0.008026625,0.0991343,0.11050361,0.0939412,0.002779532,0.038402155,-0.36423148525866667,-0.13204772389187217,91.10594748059155
1729620013499578,-0.43914577,-0.36042964,-3.3056245,0.008872056,0.09884246,0.11078025,0.105678916,-0.036480837,0.034580007,-0.35410145075418115,-0.1288733185446728,91.10501132352177
1729620013507578,-0.43866518,-0.360495,-3.305622,0.009693388,0.09855725,0.11102395,0.10266644,-0.03565103,0.030462628,-0.34374954851391193,-0.12544586248069567,91.10363135174772
1729620013515578,-0.438186,-0.360539,-3.3055904,0.010496389,0.09829048,0.111261055,0.100375146,-0.033346005,0.029638408,-0.3331429286364584,-0.12233112885495254,91.10224441967804
1729620013531578,-0.43723184,-0.36056522,-3.3054438,0.012026726,0.09776421,0.11169429,0.09564607,-0.032891985,0.02707727,-0.31150593718059205,-0.11619132243611442,91.09938847823203
1729620013539578,-0.43675914,-0.36056054,-3.30535,0.012744383,0.09750196,0.11189068,0.089707084,-0.032780692,0.02454873,-0.3004458626214621,-0.11306862573477015,91.09785150684895
1729620013547578,-0.436288,-0.36053643,-3.30523,0.013447717,0.09725425,0.112092525,0.08791673,-0.030964611,0.025230458,-0.289399254759608,-0.11009201831361179,91.09629365626711
1729620013555578,-0.43581837,-0.3604934,-3.305084,0.0141145885,0.09700552,0.11229934,0.08335895,-0.031091271,0.02585165,-0.27853929338902145,-0.10750718058854773,91.09473600222124
1729620013571578,-0.43488404,-0.36035275,-3.3047168,0.015399231,0.09651924,0.11262821,0.08029013,-0.030392313,0.020554287,-0.2574590545063427,-0.10398989397895449,91.09152508940846
1729620013579578,-0.43441927,-0.360256,-3.3044977,0.016020743,0.096298374,0.112762555,0.07768907,-0.027608125,0.016793609,-0.24684876419538782,-0.10326349150046947,91.08987878943579
1729620013587578,-0.43395618,-0.36014214,-3.3042555,0.016599806,0.09608874,0.1129391,0.07238285,-0.026204621,0.022067687,-0.23627485391414213,-0.1031789477619739,91.08811626705662
1729620013595578,-0.43349487,-0.36001152,-3.3039906,0.01716197,0.09589582,0.1131077,0.07027038,-0.024114734,0.021075828,-0.22567747874594968,-0.10350620373496408,91.08639478330258
1729620013611578,-0.43258566,-0.3597056,-3.303438,0.018223397,0.09556491,0.113375306,0.06633927,-0.020681879,0.016725156,-0.20506370290200446,-0.10478045633687047,91.08237779390389
1729620013619578,-0.43213362,-0.35952878,-3.3031297,0.018738374,0.09541633,0.11347663,0.064372085,-0.018572435,0.012665055,-0.19511121461426767,-0.10575415347326968,91.08022614836213
1729620013627578,-0.43145034,-0.36025062,-3.3028715,0.019337222,0.09482613,0.11353651,0.07485598,-0.07377472,0.007485039,-0.1852332956457093,-0.10683155096778454,91.07808100954432
1729620013635578,-0.43077388,-0.360938,-3.3025918,0.01990772,0.09426015,0.11355498,0.0713123,-0.07074792,0.0023087487,-0.17539810484152213,-0.1072749870994402,91.07573100113824
1729620013651578,-0.42944115,-0.362213,-3.3019712,0.020996626,0.09318691,0.113602884,0.06805663,-0.06707758,0.0029942018,-0.1556017983094579,-0.10838913700055762,91.07090123325969
1729620013659578,-0.42878446,-0.36280224,-3.3016534,0.021518726,0.092694744,0.11362613,0.06526243,-0.06152037,0.0029057262,-0.14541587231018818,-0.10920611981165856,91.06845568234432
1729620013667578,-0.42813417,-0.36336026,-3.3013163,0.022007972,0.09220581,0.11362841,0.06115576,-0.06111711,0.0002849847,-0.13510796282107926,-0.11057609552837418,91.06603068163041
1729620013675578,-0.42752105,-0.3639027,-3.30096,0.022441084,0.09172592,0.113633916,0.054138944,-0.059985552,0.0006882473,-0.12493474335731705,-0.11259870247255474,91.06377621571912
1729620013691578,-0.4263129,-0.36489877,-3.3001928,0.023230804,0.09082396,0.11360188,0.049357533,-0.056372486,-0.0020023435,-0.10448247356082417,-0.1187553968483273,91.05743704039034
1729620013699578,-0.4257177,-0.36535373,-3.299783,0.023610707,0.09040964,0.11356134,0.047487903,-0.051790845,-0.0050673257,-0.09417165086181725,-0.12282814631644301,91.05430833125999
1729620013707578,-0.42512837,-0.3657809,-3.2993567,0.023970416,0.09000484,0.113499545,0.044963554,-0.050599683,-0.007724389,-0.08399702117279595,-0.1273887492039252,91.05126175843748
1729620013715578,-0.42454484,-0.36618096,-3.2989142,0.024304667,0.08961895,0.113442406,0.041781455,-0.048235986,-0.0071423124,-0.07387918680530434,-0.13238691305638786,91.04820152626414
1729620013731578,-0.42339483,-0.36690202,-3.2980297,0.02495749,0.08892659,0.11327945,0.040801357,-0.043272503,-0.010184943,-0.0543142157792432,-0.14336140465713992,91.04209490271253
1729620013739578,-0.42282817,-0.3672242,-3.2975645,0.025245305,0.088608205,0.11316908,0.03597699,-0.039798204,-0.01379568,-0.04456714671351712,-0.14960703275846066,91.03913710267929
1729620013747578,-0.42165285,-0.36760688,-3.2981968,0.025761034,0.08822456,0.112835385,0.06446615,-0.04795566,-0.04171207,-0.034691410079866175,-0.156440554677169,91.0362409488399
1729620013755578,-0.42049697,-0.36796427,-3.2987866,0.026249705,0.087871626,0.11246151,0.061083816,-0.044116747,-0.046734694,-0.02514439084893977,-0.1634610826903264,91.03232011937092
1729620013771578,-0.4182418,-0.3686052,-3.2998443,0.027162166,0.08723865,0.11170792,0.057028838,-0.039561182,-0.047099307,-0.006378493258542003,-0.1772207196981386,91.02459473089205
1729620013779578,-0.41714162,-0.36888972,-3.3003318,0.027599396,0.08697475,0.11133959,0.05465373,-0.032987446,-0.04604086,0.003006426070199072,-0.18402863786493778,91.02087187725542
1729620013787578,-0.41605917,-0.36915082,-3.300781,0.028004522,0.08671223,0.11099072,0.05064066,-0.03281422,-0.043609176,0.012262598554790371,-0.19086532028919345,91.0171560937457
1729620013795578,-0.4149941,-0.3693889,-3.301193,0.028379386,0.08647034,0.11068039,0.046858095,-0.030236317,-0.038791448,0.021451544515182008,-0.19798531322817967,91.01349487987537
1729620013811578,-0.41291514,-0.36979768,-3.3019083,0.029057125,0.08609066,0.11020839,0.042358644,-0.023730097,-0.02949964,0.03986532242092704,-0.21242854793222046,91.00626835275746
1729620013819578,-0.41192594,-0.36997387,-3.302213,0.0293461,0.085930794,0.110021144,0.03612181,-0.019983387,-0.023405997,0.04925661891044954,-0.21973732921278522,91.00263462626302
1729620013827578,-0.4109525,-0.3701284,-3.302483,0.029629877,0.08578276,0.10992189,0.035472214,-0.018504448,-0.012407078,0.0589609021113061,-0.226961029521241,90.99837249011351
1729620013835578,-0.40999454,-0.37026152,-3.3027194,0.029873332,0.08566774,0.109857164,0.030431895,-0.014377757,-0.008090399,0.06893523597806302,-0.23408780263877468,90.99428767164487
1729620013851578,-0.408124,-0.37046495,-3.30313,0.030305551,0.0854887,0.10982967,0.027013708,-0.01118984,-0.00171829,0.08951510166696403,-0.24827420458544325,90.98637141503347
1729620013859578,-0.40721095,-0.37053582,-3.3032858,0.030486269,0.0854366,0.109862395,0.022589693,-0.0065127383,0.0040903687,0.10002826970901202,-0.25541630357934625,90.98255316222179
1729620013867578,-0.40631235,-0.37058645,-3.30341,0.03065915,0.08541917,0.109935425,0.021610174,-0.0021783635,0.009128824,0.110883701265327,-0.262374629836439,90.978844466047
1729620013875578,-0.4053466,-0.3705757,-3.303785,0.030894496,0.085376255,0.11002218,0.02941815,-0.0053644176,0.010844319,0.12189552687962125,-0.2690191146435851,90.97513547416202
1729620013891578,-0.4034555,-0.37050137,-3.3044207,0.031239392,0.085365824,0.11028257,0.021556042,-0.00065192574,0.016274396,0.14420937884384993,-0.28075412836424524,90.96695948760907
1729620013899578,-0.40252972,-0.37043825,-3.3047004,0.031393573,0.08538257,0.110461734,0.019272557,0.0020936131,0.022395512,0.15566542431384314,-0.28588489045985893,90.96340773222235
1729620013907578,-0.40161845,-0.3703578,-3.3049436,0.03152841,0.08542339,0.110655546,0.01685461,0.0051017846,0.024226492,0.1670214800896578,-0.29049676723327345,90.95998567308025
1729620013915578,-0.4007215,-0.3702602,-3.3051507,0.031633064,0.085476235,0.11088852,0.013081822,0.0066058706,0.029121524,0.17840382484331835,-0.2945917591431253,90.95669325434605
1729620013931578,-0.3989703,-0.37001473,-3.3054602,0.031746387,0.085603446,0.11138529,0.0070827077,0.007950701,0.03104843,0.20106014492138735,-0.30155971361151135,90.95052545515863
1729620013939578,-0.39811572,-0.36986732,-3.3055642,0.031776287,0.08568355,0.1116605,0.0037373973,0.010012648,0.034401193,0.21216455189862388,-0.3044387052849312,90.9477042558412
1729620013947578,-0.3972749,-0.36970386,-3.3056352,0.03179347,0.085779846,0.11194809,0.0021480955,0.012037343,0.03594812,0.22297096841725525,-0.3068120697041401,90.9449721192147
1729620013955578,-0.3964716,-0.3695407,-3.305674,0.0317651,0.08586981,0.11223196,-0.0035464761,0.011245719,0.03548432,0.23374313180302841,-0.3089516573520612,90.94231493510455
1729620013971578,-0.39490476,-0.36916697,-3.3056958,0.031599503,0.08609588,0.11282906,-0.010349787,0.014129094,0.03731856,0.25469038195538857,-0.31158524081954236,90.93663838389139
1729620013979578,-0.394141,-0.3689568,-3.3056607,0.031510968,0.0862247,0.11311936,-0.011066905,0.016102567,0.03628712,0.2650149190987999,-0.31235036675036904,90.93402200674858
1729620013987578,-0.39339003,-0.36873147,-3.3055959,0.03140092,0.08635579,0.11340157,-0.013756099,0.01638662,0.035276636,0.27539313869239346,-0.313000258254973,90.93152878081388
1729620013995578,-0.39245406,-0.36897305,-3.306408,0.031362176,0.0862434,0.11344097,-0.0048428774,-0.014049,0.0049248333,0.2855799432569624,-0.3134939068826761,90.9292608686311
1729620014011578,-0.39063233,-0.3693827,-3.307882,0.031211074,0.08609292,0.113461286,-0.009443844,-0.009404961,0.0012698582,0.3042390060101864,-0.31306471912731726,90.92383006135782
1729620014019578,-0.38974616,-0.36955178,-3.3085623,0.03109507,0.08603072,0.11345269,-0.014500459,-0.0077746804,-0.0010747463,0.3129694577108603,-0.3124002865701564,90.92131612533669
1729620014027578,-0.38887623,-0.3696978,-3.3091958,0.030962635,0.08596389,0.11349116,-0.016554492,-0.0083539635,0.00480935,0.32142598824404606,-0.31155255681390204,90.91895926613067
1729620014035578,-0.38802433,-0.369818,-3.3097835,0.030827122,0.085921384,0.113561764,-0.016939128,-0.005313195,0.008825213,0.3298561566597929,-0.3105525063327288,90.91676636806163
1729620014051578,-0.38636717,-0.36999282,-3.310826,0.030493088,0.08585602,0.11377907,-0.020877108,-0.0040852465,0.013581476,0.3465485217883404,-0.3085184409785942,90.91274952522508
1729620014059578,-0.3855616,-0.3700483,-3.3112824,0.03031322,0.0858461,0.113954626,-0.022483522,-0.0012405216,0.021944752,0.35469629382955337,-0.30763728047684646,90.91094590550215
1729620014067578,-0.38477105,-0.37008312,-3.3116968,0.030102009,0.0858478,0.114170805,-0.026401363,0.00021327286,0.027022323,0.36271626058481626,-0.3068926724283638,90.9092449447072
1729620014075578,-0.3839954,-0.37009767,-3.3120697,0.029881606,0.08584731,0.11441102,-0.027550383,-6.146729e-05,0.03002677,0.37052854744674907,-0.3063322153654399,90.90779661871021
1729620014091578,-0.38248783,-0.37006763,-3.3127282,0.029394446,0.08590106,0.114944726,-0.030447494,0.0033592803,0.033356715,0.3854536971909895,-0.305815621577618,90.90509834509794
1729620014099578,-0.38175574,-0.37002388,-3.3129985,0.029114248,0.08594634,0.11524346,-0.035024714,0.005659647,0.03734138,0.3926340883390334,-0.3058884601796005,90.9039166371692
1729620014107578,-0.3810267,-0.3699417,-3.3132305,0.02883369,0.086017154,0.11558213,-0.035069883,0.008852221,0.042334195,0.3997567404268267,-0.3061561220355282,90.9027759056708
1729620014115578,-0.38031173,-0.36984158,-3.313425,0.02855118,0.08607638,0.115951605,-0.035313655,0.0074030827,0.046184283,0.4065521101098925,-0.3064279461041878,90.90154623004926
1729620014131578,-0.3801289,-0.37038964,-3.3150043,0.02737518,0.0857605,0.11651596,-0.07349998,-0.01974264,0.03527198,0.42001395583861595,-0.306354280393498,90.89972217850192
1729620014139578,-0.3800387,-0.37062645,-3.315729,0.026781129,0.08564133,0.1168098,-0.07425644,-0.014895572,0.03673043,0.4266952424616019,-0.30587557334998294,90.8990938160163
1729620014147578,-0.37994963,-0.3708392,-3.316403,0.026179869,0.08552972,0.11709999,-0.07515749,-0.013951211,0.036274083,0.4330966542019547,-0.3052816852912821,90.89859499864627
1729620014155578,-0.37986186,-0.37102827,-3.317027,0.025564197,0.08544648,0.117417745,-0.07695891,-0.010405666,0.03971904,0.43901304898095594,-0.3048372898095403,90.89827390761724
1729620014171578,-0.37969115,-0.3713372,-3.3181317,0.024341334,0.085314885,0.11809163,-0.07642899,-0.00822451,0.042117663,0.4489581486302549,-0.30456418510255523,90.89779579285721
1729620014179578,-0.37960428,-0.3714455,-3.3186142,0.023737362,0.08528257,0.11846655,-0.075496495,-0.004039146,0.04686508,0.4529472341405791,-0.3049519905868425,90.89779584636858
1729620014187578,-0.37951955,-0.37153205,-3.3190515,0.023125486,0.08526928,0.11887877,-0.0764844,-0.0016614794,0.05152728,0.4563484799485737,-0.3055933704618027,90.89767280930492
1729620014195578,-0.37943706,-0.3715972,-3.3194442,0.022502435,0.08528261,0.11931489,-0.07788138,0.001666136,0.054514963,0.4593148156168347,-0.3065720758300811,90.89753627385676
1729620014211578,-0.37928015,-0.37166473,-3.3201277,0.021218019,0.08533038,0.12026908,-0.08027604,0.00298582,0.059637237,0.46392816517703805,-0.30941016715623904,90.89763909008606
1729620014219578,-0.37920588,-0.37166804,-3.320406,0.020588996,0.08536187,0.12076332,-0.07862783,0.003935769,0.06177928,0.46528631260474035,-0.310850824567037,90.89783042171221
1729620014227578,-0.37913457,-0.37165153,-3.3206432,0.019948494,0.08542298,0.12126945,-0.08006277,0.0076387073,0.063266605,0.46602337691699125,-0.3120877740945462,90.89817205480328
1729620014235578,-0.37906638,-0.37161544,-3.32084,0.019315815,0.08549664,0.1217838,-0.07908488,0.009207986,0.064293854,0.46586311160171645,-0.31312966025490585,90.89860946093431
1729620014251578,-0.37908748,-0.3708863,-3.3213127,0.01804575,0.0859186,0.122793205,-0.07937907,0.02637226,0.06308779,0.4636010490698222,-0.31466295401216876,90.89967517674837
1729620014259578,-0.37917325,-0.37020707,-3.3215997,0.01737901,0.08627379,0.123290226,-0.083342426,0.044398937,0.062127594,0.46179107876430814,-0.3159652453475247,90.90042668439486
1729620014267578,-0.37925893,-0.3695224,-3.3218448,0.016712742,0.086647674,0.12377327,-0.083283514,0.046735626,0.060380433,0.4597062768055334,-0.3173077715461185,90.90124654037608
1729620014275578,-0.3793447,-0.3688323,-3.3220494,0.016056338,0.08701881,0.124233045,-0.08205044,0.046391968,0.057471912,0.457163298357484,-0.31852930031446985,90.90223046463679
1729620014291578,-0.37951663,-0.36743566,-3.3223405,0.014772079,0.08775276,0.12515494,-0.08026621,0.045871824,0.057618596,0.4507993391900905,-0.31954069091877696,90.90471014580135
1729620014299578,-0.37960294,-0.366729,-3.3224287,0.014132113,0.088118345,0.12563619,-0.079995714,0.045698132,0.060155984,0.4468154242095283,-0.3193049123262425,90.90601494702227
1729620014307578,-0.37968963,-0.36601666,-3.32248,0.013491567,0.08849674,0.12613286,-0.080068246,0.047299076,0.06208382,0.44237664201311916,-0.31832676606948196,90.90729915191892
1729620014315578,-0.3797768,-0.36529857,-3.3224952,0.012866905,0.08887926,0.12660094,-0.07808278,0.04781503,0.058509406,0.43745786115516344,-0.31663330672502715,90.90869246515423
1729620014331578,-0.37997556,-0.36384657,-3.3224523,0.01160446,0.08962088,0.12744205,-0.07890281,0.046351455,0.05256943,0.4268171592056871,-0.3111211279489473,90.91174565432608
1729620014339578,-0.38008693,-0.36311272,-3.3223803,0.010989254,0.089982904,0.12782682,-0.0769007,0.04525296,0.04809722,0.4213413906253919,-0.3073589195789194,90.91268789723367
1729620014347578,-0.3801986,-0.3623732,-3.3222759,0.010382413,0.0903234,0.12821059,-0.07585517,0.04256237,0.04797056,0.41572038154602614,-0.30305538577614477,90.91363702306896
1729620014355578,-0.38031065,-0.3616281,-3.3221397,0.009773946,0.09065794,0.12857185,-0.07605832,0.04181731,0.045157965,0.40988996505125497,-0.29828771468499543,90.91465455120276
1729620014371578,-0.38025984,-0.36032557,-3.3218563,0.008758571,0.09120818,0.12922825,-0.06346096,0.034390017,0.041024756,0.3969163421762206,-0.2867754675348229,90.9168532378002
1729620014379578,-0.38010225,-0.35976398,-3.3217242,0.00834867,0.09142312,0.12954359,-0.05123764,0.026866792,0.039417293,0.3895047379447475,-0.27990541384064227,90.91777493307804
1729620014387578,-0.3799503,-0.35919288,-3.3215616,0.007945319,0.091640115,0.12983489,-0.05041889,0.027124768,0.03641285,0.3819348534365481,-0.2724632493041038,90.91871012183648
1729620014395578,-0.3798088,-0.3586005,-3.321369,0.00755715,0.091868766,0.1300911,-0.04852109,0.028581357,0.03202632,0.3742682591778057,-0.2645545237648733,90.91965902278945
1729620014411578,-0.37954134,-0.35738897,-3.3208988,0.006796997,0.09228144,0.13055359,-0.047509555,0.025792046,0.028905457,0.35893643856837715,-0.24800905202075332,90.92068244194118
1729620014419578,-0.37941504,-0.35677022,-3.3206227,0.0064389035,0.09250343,0.13075955,-0.044761688,0.027748754,0.02574548,0.3513966522982556,-0.23962937456531397,90.92118748582415
1729620014427578,-0.3792934,-0.35614315,-3.3203206,0.006089501,0.09268986,0.13097855,-0.0436753,0.023303552,0.027375294,0.3442303053184322,-0.23144185623319483,90.92169930362834
1729620014435578,-0.37917647,-0.35550815,-3.3199925,0.005721658,0.092857674,0.13117513,-0.045980383,0.020977108,0.024572013,0.3374261697400531,-0.22345084546100275,90.92230667686891
1729620014443578,-0.37906414,-0.35486546,-3.3196573,0.0053689564,0.09302965,0.13132523,-0.044087704,0.021496786,0.018762425,0.33092982412104127,-0.21540471688465154,90.92298239783072
1729620014459578,-0.37885246,-0.3535576,-3.3189142,0.004712513,0.09336121,0.13157201,-0.0410277,0.020722391,0.015423632,0.3186945755762487,-0.19876039760219338,90.92432733850575
1729620014467578,-0.37873492,-0.3528784,-3.3185081,0.0044159703,0.093544066,0.13165124,-0.03706786,0.022857448,0.009903683,0.3129897673963242,-0.19012853624059273,90.92501671592362
1729620014475578,-0.3786216,-0.3521924,-3.31808,0.0041204025,0.09371134,0.13170648,-0.036945973,0.020909121,0.006904825,0.30735972242864035,-0.18142445491769804,90.9261229576006
1729620014491578,-0.3784069,-0.35080102,-3.3171608,0.0035682493,0.0940297,0.13179846,-0.034509573,0.019897705,0.005749054,0.2970930050962181,-0.16431810151444465,90.92828074819674
1729620014499578,-0.37804472,-0.35024324,-3.3174977,0.0034276694,0.094008535,0.13164006,-0.017572485,-0.0026458872,-0.019799916,0.2924344533581522,-0.1560681078791945,90.92942807366704
1729620014507578,-0.37769163,-0.34967777,-3.3177946,0.0032893475,0.09400321,0.13144557,-0.017290236,-0.0006658956,-0.024311243,0.28797495681744534,-0.1476165862087781,90.93079376991798
1729620014515578,-0.37734738,-0.34910482,-3.3180525,0.0031469155,0.09397955,0.13123171,-0.017804006,-0.002956949,-0.026732681,0.283895602872133,-0.13903037122040468,90.9321870040761
1729620014531578,-0.37668455,-0.3479379,-3.318457,0.0028673129,0.09389517,0.13079469,-0.017475162,-0.0052740793,-0.027313827,0.27612348683605165,-0.12143968042946605,90.93494620812795
1729620014539578,-0.3763655,-0.34734443,-3.3186052,0.0027209993,0.09384086,0.13062231,-0.018289195,-0.00678841,-0.021547077,0.2725093970128702,-0.1128506995880377,90.93631895170482
1729620014547578,-0.37604418,-0.34674335,-3.3187187,0.0025773442,0.09379836,0.1304778,-0.017956888,-0.0053122635,-0.018063933,0.269045737974025,-0.10446177145191184,90.93779424543396
1729620014555578,-0.37573084,-0.3461361,-3.3187983,0.0024490512,0.09373402,0.13033134,-0.016036617,-0.008042902,-0.01830794,0.26584269265428856,-0.09639169711122905,90.93969300982876
1729620014571578,-0.37512738,-0.3449038,-3.3188877,0.002191462,0.09361129,0.13010438,-0.01609932,-0.0076703723,-0.014184973,0.26032890778294937,-0.08083470866358926,90.94364094776031
1729620014579578,-0.37483677,-0.34427914,-3.318884,0.0020831358,0.09354878,0.13002911,-0.0135407895,-0.007813796,-0.009408221,0.25814048022280417,-0.07351405990866217,90.94569017811668
1729620014587578,-0.37455338,-0.34364897,-3.3188488,0.0019506111,0.09349747,0.12997337,-0.01656558,-0.006414018,-0.006968155,0.25648919406519366,-0.06660855339802359,90.94777355430361
1729620014595578,-0.37427714,-0.34301335,-3.3187833,0.001813655,0.09345411,0.12994744,-0.017119512,-0.005420297,-0.0032410023,0.25546812463067414,-0.060156281847113455,90.94984321485045
1729620014611578,-0.37374538,-0.34172642,-3.3185627,0.0015724567,0.09333707,0.12996145,-0.015074896,-0.0073150727,0.00087544316,0.25451004363310414,-0.048061652257477105,90.95414660611581
1729620014619578,-0.37349635,-0.34106916,-3.3184245,0.0014330625,0.09328582,0.12997009,-0.017424272,-0.006405636,0.0010803342,0.25442358471067805,-0.042201775015946505,90.95631887419813
1729620014627578,-0.3731302,-0.34127244,-3.3181922,0.0013460806,0.09271131,0.1300397,-0.010872739,-0.071814284,0.008702278,0.2545092395683422,-0.036416756837435234,90.9582111434846
1729620014635578,-0.37277305,-0.34145448,-3.3179338,0.0012624711,0.09213853,0.13010687,-0.010451185,-0.071597286,0.008394942,0.25469366439143715,-0.02997173855878343,90.9615582106883
1729620014651578,-0.37208518,-0.34175748,-3.31734,0.0010515207,0.091027744,0.1302793,-0.013184398,-0.06942404,0.010777264,0.2554326363731253,-0.016987174302577724,90.96830743633753
1729620014659578,-0.37175417,-0.34187964,-3.317006,0.00095041847,0.090475656,0.13034283,-0.012637777,-0.069011,0.007940456,0.25604384075072467,-0.010743780905685753,90.97164090037504
1729620014667578,-0.3714316,-0.3419832,-3.316649,0.00082163914,0.08991628,0.1303874,-0.016097415,-0.069921836,0.005571171,0.25698945425762043,-0.00507721845813112,90.97497453772878
1729620014675578,-0.37111744,-0.34206876,-3.316269,0.00069298357,0.08935871,0.1304247,-0.016081946,-0.069696456,0.004662201,0.2581973603462437,-5.402786355186668e-05,90.97823293750089
1729620014691578,-0.37052113,-0.34218305,-3.3154755,0.0004313218,0.088251606,0.13046685,-0.01635386,-0.069194004,0.0026347113,0.2620738926402808,0.006996621687567683,90.98459284046145
1729620014699578,-0.37023503,-0.3422155,-3.3150465,0.00026849873,0.0877258,0.1304556,-0.020352883,-0.0657253,-0.001406297,0.26442499413346837,0.00882337714291449,90.98753715628929
1729620014707578,-0.36995685,-0.3422321,-3.314597,0.00011259224,0.08719195,0.13042973,-0.01948831,-0.06673206,-0.0032335517,0.2670126416711538,0.009515293990999919,90.99047446624677
1729620014715578,-0.36968645,-0.34223342,-3.3141274,-4.7890673e-05,0.08668726,0.13038324,-0.020060364,-0.06308593,-0.0058114524,0.269728876666763,0.009347580828092106,90.99341189396807
1729620014731578,-0.36916855,-0.34219092,-3.313131,-0.00039665238,0.085763015,0.13027653,-0.021797605,-0.05776528,-0.0066692005,0.27521035827370843,0.006644893623245638,90.99915687653456
1729620014739578,-0.3689209,-0.34214804,-3.3126237,-0.00057237264,0.085297056,0.13016805,-0.02196503,-0.05824491,-0.013560056,0.27785112554763003,0.004541555534498527,91.00194406290761
1729620014747578,-0.36826745,-0.3425268,-3.3125877,-0.00049712864,0.08453,0.12999445,0.009405499,-0.095881514,-0.021699814,0.2804499681762076,0.0019032082001902476,91.00475179682279
1729620014755578,-0.36761862,-0.34287494,-3.3125215,-0.00040824414,0.083807476,0.12977502,0.011110561,-0.09031593,-0.02742931,0.28275670027988226,-0.0005574875105846419,91.00840640370531
1729620014771578,-0.36636445,-0.34351063,-3.3123026,-0.00025409617,0.082449205,0.12928253,0.009634248,-0.08489191,-0.03078021,0.28794632834839007,-0.0060315239557240385,91.01524446665915
1729620014779578,-0.36575845,-0.34379917,-3.3121521,-0.00019347074,0.08181295,0.12902571,0.007578179,-0.07953215,-0.03210269,0.2909768455687309,-0.009185003647421074,91.01868749095465
1729620014787578,-0.3651662,-0.3440687,-3.3119752,-0.0001528638,0.08119374,0.12878378,0.0050758678,-0.07740129,-0.030241905,0.29432397543163,-0.012762475373971127,91.02209643109944
1729620014795578,-0.36458737,-0.3443196,-3.3117723,-0.00011766626,0.08060262,0.12856635,0.0043996912,-0.07388927,-0.027177854,0.29795427858698753,-0.01707427255855631,91.0254231785117
1729620014811578,-0.36346903,-0.34476686,-3.3113236,-9.689716e-05,0.079482466,0.12808962,0.001298069,-0.07000984,-0.029795801,0.30628612593437665,-0.027749352135300148,91.03215886663341
1729620014819578,-0.36292908,-0.34496397,-3.3110628,-9.870058e-05,0.07895393,0.12787586,-0.00022542734,-0.06606709,-0.026719643,0.31088444521316805,-0.033773846658577855,91.03548585983815
1729620014827578,-0.36239138,-0.34515303,-3.3107789,-0.00013064555,0.07844917,0.12766065,-0.003993122,-0.06309524,-0.026902182,0.3158947233145796,-0.040060370087007045,91.0386966979173
1729620014835578,-0.3618663,-0.34532496,-3.3104722,-0.00017511364,0.077967875,0.12744406,-0.0055585112,-0.060161572,-0.027073545,0.32093818434902455,-0.046465902078901736,91.04222844052576
1729620014851578,-0.36085293,-0.34561887,-3.3097928,-0.0003042581,0.077039845,0.12706576,-0.008071529,-0.058001835,-0.023643484,0.3314144436884453,-0.05958191198314111,91.04893017284496
1729620014859578,-0.3603643,-0.3457416,-3.309439,-0.00038241874,0.076609135,0.12688592,-0.009770079,-0.053838823,-0.022480262,0.33681741389827974,-0.06609998410828796,91.05238698414861
1729620014867578,-0.3598874,-0.34584844,-3.3090644,-0.00047598788,0.07620557,0.12668903,-0.011696141,-0.050446015,-0.024611128,0.3421538657491105,-0.07255003528707972,91.05573459481867
1729620014875578,-0.3593141,-0.34600532,-3.3078246,-0.00054282916,0.075820856,0.1266079,-0.00835516,-0.048088837,-0.010142102,0.3473790431498218,-0.07934103688034132,91.05902068267768
1729620014891578,-0.3582088,-0.3462675,-3.3053534,-0.00074327935,0.07513958,0.12648414,-0.012528136,-0.0425796,-0.0077346335,0.35742016807957444,-0.09352808967770568,91.06485507425927
1729620014899578,-0.35767013,-0.34638193,-3.304122,-0.00085956336,0.07478723,0.12637612,-0.0145355,-0.044044103,-0.013502314,0.36240252536711476,-0.10093383967572911,91.06772440495466
1729620014907578,-0.3571448,-0.34647986,-3.3028939,-0.0009815162,0.074497364,0.12621456,-0.015244106,-0.036233105,-0.020194797,0.36727547051795856,-0.10835681360609833,91.07052551017563
1729620014915578,-0.35663256,-0.3465614,-3.3016691,-0.001116652,0.074219994,0.12600239,-0.016891979,-0.034671277,-0.026522202,0.3722589794857006,-0.11569103673555722,91.07326515558795
1729620014931578,-0.35564697,-0.3466762,-3.2992787,-0.0014138463,0.07374628,0.12540239,-0.018574638,-0.029607208,-0.037499703,0.3826478811981322,-0.12937655268602666,91.07868298933695
1729620014939578,-0.35517314,-0.34670982,-3.2980893,-0.0015773984,0.07352593,0.12501092,-0.020444013,-0.027543863,-0.048933547,0.38777058234856626,-0.13574526756849695,91.0812724008418
1729620014947578,-0.35471186,-0.3467279,-3.2969043,-0.0017728086,0.07334559,0.12457666,-0.024426276,-0.022542661,-0.054283064,0.3928685236575422,-0.14182277971979104,91.08369791808504
1729620014955578,-0.35426307,-0.3467305,-3.295724,-0.0019789508,0.07318014,0.12410335,-0.025767773,-0.020680947,-0.059163194,0.3979406951052393,-0.14786443485421027,91.08606184661004
1729620014971578,-0.35341159,-0.34668326,-3.2933784,-0.0024467134,0.07290437,0.12299965,-0.02923516,-0.017235521,-0.0689812,0.40738782653475875,-0.1594134991886295,91.09044819305323
1729620014979578,-0.35300863,-0.34663388,-3.2922394,-0.00270992,0.07279962,0.12236474,-0.032900833,-0.013093463,-0.07936451,0.41228677365856675,-0.16492813864294598,91.09189684681468
1729620014987578,-0.3526176,-0.34656993,-3.2911057,-0.0029834553,0.0727161,0.121691465,-0.034191906,-0.010440125,-0.08415896,0.4172028786496487,-0.1701089526552578,91.09329750327701
1729620014995578,-0.35239378,-0.3465345,-3.2905335,-0.0032977215,0.07255789,0.12084357,-0.039283272,-0.019776633,-0.105987296,0.4221411320637866,-0.1748157880704232,91.09452756639402
1729620015011578,-0.3519696,-0.34642148,-3.2893662,-0.004002419,0.072297536,0.11904545,-0.044043582,-0.016272068,-0.112382226,0.4316103508537652,-0.18258647339350878,91.09814185700021
1729620015019578,-0.35176942,-0.34634426,-3.288772,-0.004379106,0.07218928,0.118150175,-0.047085922,-0.013532116,-0.111909576,0.43598614742614844,-0.1859581230019299,91.09982237252107
1729620015027578,-0.3515771,-0.34625357,-3.2881713,-0.004749633,0.07208859,0.11724416,-0.046315834,-0.012585892,-0.11325161,0.440037946835728,-0.18887009368349414,91.10142133428927
1729620015035578,-0.35141316,-0.3461343,-3.2875643,-0.005160971,0.072023995,0.11634458,-0.05141727,-0.008074567,-0.11244788,0.4437906942626407,-0.19131675561538308,91.10288345500022
1729620015051578,-0.35110846,-0.345857,-3.2863772,-0.0060091494,0.07193386,0.11452627,-0.05301114,-0.00563357,-0.11364417,0.45058032062247155,-0.1953989374688139,91.10371035122564
1729620015059578,-0.35096765,-0.34569928,-3.285775,-0.006432801,0.0719108,0.11365568,-0.052956454,-0.0028824431,-0.108824104,0.4533984785834005,-0.19704657018594293,91.10401102292258
1729620015067578,-0.3508345,-0.34552917,-3.2851677,-0.006864898,0.07188901,0.11278375,-0.05401211,-0.002723187,-0.10899081,0.45557901671253337,-0.1984710332985927,91.1042843130027
1729620015075578,-0.35070908,-0.34534684,-3.2845552,-0.0073184087,0.07188857,0.11191766,-0.056688845,-5.494803e-05,-0.108261585,0.45726067008040716,-0.1998773403932336,91.10450980037058
1729620015091578,-0.3504819,-0.34494585,-3.2833157,-0.008277187,0.071924135,0.110309996,-0.05992365,0.0022226013,-0.10047899,0.45946954396714484,-0.20243961093872073,91.10456456372559
1729620015099578,-0.35038018,-0.34472764,-3.2827122,-0.008759996,0.07196026,0.10950535,-0.060351096,0.004515983,-0.10058097,0.46016159178522514,-0.20372672281626839,91.10442122134815
1729620015107578,-0.35026267,-0.34450063,-3.282104,-0.009205139,0.0719996,0.10871121,-0.055642914,0.0049173827,-0.09926687,0.4605710738701584,-0.20484608054232895,91.10424366830587
1729620015115578,-0.3501532,-0.34426218,-3.2814913,-0.009678485,0.07203987,0.10793058,-0.0591682,0.005033798,-0.097579315,0.46065893101244487,-0.20564627168621694,91.10481066971874
1729620015131578,-0.3495875,-0.3442128,-3.281484,-0.010470881,0.07184186,0.10615234,-0.04952476,-0.012375879,-0.11113984,0.4596250896814712,-0.20605104304816294,91.10646406900845
1729620015139578,-0.3493229,-0.34416547,-3.2814505,-0.010866648,0.071761034,0.10528214,-0.049470805,-0.010102986,-0.108774744,0.45861045771371955,-0.2057777936960792,91.1076460066625
1729620015147578,-0.3490701,-0.3441034,-3.2813985,-0.011256901,0.07169396,0.10441127,-0.048781626,-0.008384697,-0.108859494,0.45749134662499397,-0.20516956944350123,91.10873903591776
1729620015155578,-0.34882903,-0.34402686,-3.2813282,-0.011673682,0.07162773,0.103568085,-0.052097715,-0.008278526,-0.10539777,0.4561968168828866,-0.20443330503199136,91.1098250377547
1729620015171578,-0.34838173,-0.3438316,-3.2811754,-0.012523444,0.071523674,0.10200707,-0.053110123,-0.006503425,-0.09756348,0.45301290410823486,-0.2022756853762654,91.11171048959177
1729620015179578,-0.34817111,-0.34372196,-3.281072,-0.012929971,0.07145885,0.101318344,-0.05081587,-0.008103438,-0.08609052,0.45106608034850676,-0.2010271137270154,91.1126599117626
1729620015187578,-0.3479716,-0.34359893,-3.280951,-0.013341041,0.07141516,0.10064659,-0.05138374,-0.005460344,-0.08396897,0.4490419923299009,-0.19959723423417436,91.11388945294955
1729620015195578,-0.34778285,-0.34346282,-3.2808135,-0.013734262,0.07136984,0.09999834,-0.049152642,-0.0056652348,-0.081031576,0.44690174090011436,-0.19818405691250596,91.1150370466122
1729620015211578,-0.34743705,-0.34315196,-3.2804887,-0.014532759,0.07134783,0.098798215,-0.049906023,-0.0013755633,-0.07500779,0.4426206789196946,-0.19533198254942277,91.11718875919162
1729620015219578,-0.34727964,-0.34297773,-3.280325,-0.014935298,0.071332216,0.09825285,-0.050317377,-0.001952052,-0.06817095,0.4404735451002473,-0.19416095852810167,91.11818611583
1729620015227578,-0.34713227,-0.34279132,-3.2801447,-0.015323426,0.07133515,0.09775046,-0.048515968,0.00036694107,-0.06279815,0.4382289236004568,-0.19317383047135037,91.11919030130981
