timestamp,x,y,z,vx,vy,vz,ax,ay,az,roll,pitch,yaw
1729571585627364,-0.24810286,0.19400333,-1.7295805,0.03268061,0.0067454176,-0.22555594,0.0,0.0,0.0,0.6093996290873432,0.29908867197040784,90.2359937641557
1729571585643364,-0.24848641,0.19263382,-1.732965,0.031374447,0.0050078495,-0.2272734,-0.08163507,-0.108598,-0.10734144,0.6023185007733797,0.29211663690064077,90.21721015533697
1729571585651364,-0.24866831,0.19196619,-1.7346693,0.030740375,0.00416531,-0.22804098,-0.07925904,-0.10531744,-0.09594671,0.5986338540464499,0.28829731154259497,90.20891124973308
1729571585659364,-0.24884503,0.19130924,-1.7363812,0.030102294,0.0033239422,-0.22876959,-0.07976009,-0.105170965,-0.09107589,0.5949534251674843,0.28425720421752504,90.20121340950466
1729571585667364,-0.2490157,0.19066271,-1.7381002,0.029479098,0.0024979908,-0.22945812,-0.077899545,-0.10324391,-0.08606724,0.5912080794801831,0.2796617119199477,90.1942942211517
1729571585683364,-0.24933957,0.18939993,-1.7415577,0.028272841,0.0009261136,-0.23063478,-0.075391024,-0.09824233,-0.073540956,0.5829901926773549,0.2687253332332493,90.18230003498994
1729571585691364,-0.24949308,0.1887829,-1.7432951,0.027699342,0.00014531275,-0.23111366,-0.071687385,-0.097600095,-0.059859823,0.5784579981844998,0.2622530458589124,90.17709527254232
1729571585699364,-0.24964108,0.18817508,-1.7450376,0.02714617,-0.00059939496,-0.23157918,-0.06914651,-0.093088455,-0.058190893,0.573728346916347,0.25521569146114237,90.172443742401
1729571585707364,-0.24978386,0.18757622,-1.746785,0.026567556,-0.0013218985,-0.23202118,-0.07232674,-0.09031294,-0.055249777,0.5689335692437004,0.24759899671155608,90.16834546579766
1729571585723364,-0.25005493,0.18640432,-1.7502934,0.025433332,-0.002726879,-0.23272842,-0.07088901,-0.08781128,-0.04420243,0.5586687096290341,0.2308249730739402,90.16143984850522
1729571585731364,-0.25018188,0.18583018,-1.7520534,0.024894856,-0.0034016853,-0.23301075,-0.06730948,-0.08435079,-0.035291538,0.5533446716480287,0.22178608100639302,90.15864619506861
1729571585739364,-0.25030437,0.18526399,-1.7538168,0.024361584,-0.004057381,-0.23327821,-0.066658944,-0.081961945,-0.033432618,0.5477780182469938,0.21235739074598703,90.1577581543522
1729571585747364,-0.2504226,0.18470553,-1.7555834,0.023832409,-0.0046858275,-0.2334949,-0.06614695,-0.07855583,-0.027084721,0.5420495345239053,0.20257905705854282,90.1573892198205
1729571585755364,-0.25159454,0.1837312,-1.757586,0.022815922,-0.005540376,-0.23376285,-0.1270608,-0.106818564,-0.033494085,0.5360874742144163,0.19255972361662468,90.15733449377419
1729571585771364,-0.2538599,0.18182895,-1.7615825,0.020839369,-0.007191555,-0.23414074,-0.123534575,-0.103198685,-0.023618339,0.5252933310930042,0.17229106109397,90.15714306078675
1729571585779364,-0.254955,0.18090014,-1.763576,0.019856313,-0.007980345,-0.23429674,-0.12288196,-0.09859871,-0.019500032,0.519868548732443,0.16177978216533725,90.15752547652802
1729571585787364,-0.25602606,0.17998582,-1.7655663,0.01891816,-0.008729564,-0.23440243,-0.117269106,-0.0936524,-0.013211741,0.5140920614417418,0.15096206957785613,90.15822208048587
1729571585803364,-0.25809935,0.17819712,-1.7695369,0.017119786,-0.010159602,-0.2344856,-0.11239841,-0.089377396,-0.005197711,0.5016196922054246,0.12825337059510447,90.16304406486377
1729571585811364,-0.25910237,0.17732337,-1.7715162,0.016252657,-0.010826223,-0.23443623,-0.10839104,-0.083327524,0.006170943,0.49462284345763996,0.11627236439819949,90.16701917803027
1729571585819364,-0.26008388,0.17646317,-1.7734913,0.0153915435,-0.011459361,-0.23436071,-0.10763923,-0.07914227,0.009439886,0.48708256360127455,0.10394366339392101,90.17126069441659
1729571585827364,-0.2610445,0.17561619,-1.7754622,0.014558593,-0.012072368,-0.23426017,-0.10411883,-0.07662584,0.012567266,0.47882031369879174,0.09125398057286528,90.17569345255488
1729571585843364,-0.26290536,0.17396078,-1.77939,0.01295895,-0.013253745,-0.2338989,-0.09997765,-0.073836066,0.022579914,0.45970492559482373,0.0649026191478111,90.18516686535806
1729571585851364,-0.2638066,0.1731518,-1.7813464,0.012202289,-0.013793236,-0.23365542,-0.09458267,-0.06743637,0.030433757,0.4490681569496596,0.051271728982055155,90.19013238862463
1729571585859364,-0.26468912,0.17235515,-1.7832979,0.0114626745,-0.014308462,-0.2333887,-0.0924518,-0.06440328,0.033339486,0.43772657111039354,0.0375265560869244,90.19524136545579
1729571585867364,-0.2655536,0.1715707,-1.7852441,0.010748941,-0.014778543,-0.23309644,-0.08921663,-0.058760166,0.036533922,0.4257339244217894,0.02384791300058398,90.20049379739046
1729571585883364,-0.26691583,0.16904013,-1.7906823,0.0095138615,-0.016137289,-0.23260094,-0.07719249,-0.0849216,0.030968336,0.399860246064517,-0.003068435805668528,90.2129862677679
1729571585891364,-0.2675767,0.16780795,-1.7933617,0.008941348,-0.01678385,-0.23227756,-0.07156422,-0.080820166,0.04042312,0.3861302151858402,-0.01606978114128527,90.22046541370239
1729571585899364,-0.2682244,0.16659711,-1.7960149,0.008401503,-0.017396707,-0.23192656,-0.0674806,-0.0766071,0.043874603,0.37181696228984945,-0.029037043055185043,90.2279923185313
1729571585907364,-0.26885915,0.16540721,-1.7986425,0.007899172,-0.01797215,-0.23152831,-0.06279139,-0.07193046,0.04978105,0.3571389038554058,-0.04184401041140711,90.23545782076646
1729571585923364,-0.27009016,0.16308902,-1.8038217,0.0069720824,-0.01899333,-0.23056318,-0.057943076,-0.06382365,0.060320828,0.3269334924437915,-0.06764175362118899,90.25055958622302
1729571585931364,-0.27068648,0.16196023,-1.8063735,0.006573895,-0.019457657,-0.22997984,-0.049773425,-0.05804095,0.07291697,0.31154516138704436,-0.08088786279611004,90.25797053156221
1729571585939364,-0.27126846,0.16085182,-1.8089001,0.0061934697,-0.01989893,-0.22933865,-0.047553156,-0.055159207,0.08014961,0.2962609631520513,-0.09440508981461398,90.26538829759535
1729571585947364,-0.27183792,0.1597628,-1.8114017,0.0058369646,-0.020304447,-0.22864345,-0.044563144,-0.050689556,0.08689984,0.2810066875637983,-0.10833241431249095,90.27166542202632
1729571585963364,-0.27293965,0.15764178,-1.8163301,0.0052116592,-0.02101139,-0.2270814,-0.03908158,-0.04418392,0.097627744,0.2510339714405489,-0.13702116919640808,90.28401488276498
1729571585971364,-0.27347192,0.15660922,-1.8187572,0.0049521104,-0.021331044,-0.22621198,-0.03244361,-0.039956763,0.10867789,0.23646444117433021,-0.15171152537103677,90.29004619057277
1729571585979364,-0.27399194,0.15559481,-1.8211596,0.0047160634,-0.021624321,-0.22529563,-0.02950587,-0.03665965,0.114543356,0.22213328108731537,-0.16646501767427124,90.2959888014876
1729571585987364,-0.27449968,0.1545983,-1.8235375,0.0045081587,-0.021895025,-0.22432369,-0.025988089,-0.033837974,0.121492885,0.20816364478203622,-0.18111556073461002,90.3017674632668
1729571586003364,-0.27554855,0.15264878,-1.8285483,0.004122355,-0.022398693,-0.2223187,-0.024112726,-0.031479284,0.12531224,0.18119582344043939,-0.2099998522310912,90.31272387203181
1729571586011364,-0.2760897,0.15169439,-1.831173,0.0039526583,-0.022649843,-0.22127256,-0.021212094,-0.031393718,0.130767,0.1684018076216027,-0.22394502408607428,90.31938370480057
1729571586019364,-0.2766176,0.15075594,-1.833765,0.0037844232,-0.0228769,-0.22020358,-0.02102938,-0.028382054,0.13362244,0.15617636349217365,-0.23763576912968382,90.32535376245703
1729571586027364,-0.27713236,0.14983322,-1.8363253,0.003663523,-0.02306831,-0.2191167,-0.015112542,-0.023926374,0.13585947,0.1444834497081842,-0.2510552652389837,90.33115988915578
1729571586043364,-0.27812254,0.14803462,-1.8413516,0.003499548,-0.023370126,-0.21686012,-0.010248433,-0.018863473,0.14103669,0.12243797890704228,-0.27730847051053564,90.3422121652871
1729571586051364,-0.2785983,0.14715847,-1.8438184,0.0034385843,-0.023472777,-0.21565646,-0.0076204594,-0.012831296,0.15045702,0.11220979055096279,-0.2902102958161261,90.34743780476059
1729571586059364,-0.27906135,0.14629772,-1.8462547,0.0033967465,-0.023544993,-0.21444213,-0.005229725,-0.009027077,0.15179068,0.10252710064654555,-0.30301605827750727,90.35240388900505
1729571586067364,-0.27951193,0.14545214,-1.8486607,0.0033714175,-0.023593102,-0.21319532,-0.0031661182,-0.0060135494,0.15585124,0.09316771101766745,-0.3157634315351606,90.35715148273083
1729571586075364,-0.27995217,0.14462453,-1.8510369,0.0033656494,-0.023604166,-0.21191399,-0.00072101824,-0.0013830139,0.16016698,0.08424766356677671,-0.32830025503860066,90.36171463095219
1729571586091364,-0.28079635,0.1430143,-1.8557007,0.003360132,-0.02354855,-0.20926556,-0.0003448367,0.0034759284,0.16552675,0.06784377084522845,-0.35280049650622314,90.36194095403782
1729571586099364,-0.28120068,0.1422316,-1.8579891,0.003397253,-0.023474168,-0.20792076,0.00464014,0.009297859,0.16809998,0.06042387604111436,-0.3645664216170329,90.36162721832486
1729571586107364,-0.28159323,0.14146368,-1.8602488,0.0034417645,-0.023385517,-0.20655489,0.0055639246,0.011081341,0.17073376,0.053436624501285876,-0.37600794780495783,90.36113593966085
1729571586115364,-0.28197423,0.14071035,-1.8624803,0.003505501,-0.023276191,-0.20517033,0.007967057,0.013665761,0.17306952,0.04694752671662167,-0.38705092767359484,90.36041917670042
1729571586131364,-0.28319103,0.13984266,-1.8688817,0.0033013676,-0.022584159,-0.20283934,-0.012758333,0.043252014,0.14568679,0.03564931843161081,-0.40821034953594,90.35432732266132
1729571586139364,-0.28377652,0.13942225,-1.8720038,0.0032311562,-0.022216462,-0.2016613,-0.008776435,0.045962162,0.14725514,0.030643286941372774,-0.41821347508724777,90.3488155716134
1729571586147364,-0.28434557,0.13900925,-1.8750747,0.0031799553,-0.021840347,-0.20046803,-0.0064001065,0.047014326,0.14915876,0.02603008475978431,-0.42785284230111564,90.34317399041318
1729571586155364,-0.2849,0.13860534,-1.8780956,0.0031224699,-0.021434598,-0.19923778,-0.007185677,0.05071866,0.15378185,0.021753318074652486,-0.43707028507318224,90.33994354107692
1729571586171364,-0.28596595,0.13782498,-1.8839899,0.0030999994,-0.020623442,-0.19656602,-0.0014044052,0.05069724,0.1669852,0.013856833603010352,-0.4534890082534243,90.33245801835432
1729571586179364,-0.28647786,0.13744843,-1.8868645,0.0030999351,-0.020201264,-0.1951679,-8.032657e-06,0.052772228,0.17476453,0.010101643012186358,-0.46074081887498175,90.32838740055553
1729571586187364,-0.28697607,0.13708109,-1.8896917,0.0031166673,-0.019761316,-0.19374093,0.0020915177,0.054993432,0.17837061,0.0063476446267408185,-0.4672698400512589,90.32418009016705
1729571586203364,-0.28793254,0.13637413,-1.8952065,0.003164128,-0.018843794,-0.19070412,0.0029662913,0.057345137,0.18980074,-0.001048150420023265,-0.4783749318497548,90.31525309741153
1729571586211364,-0.28839123,0.13603461,-1.897895,0.0032104333,-0.018376324,-0.18909237,0.0057881693,0.058433738,0.20146927,-0.00473733135613584,-0.4830022810573172,90.31044460321696
1729571586219364,-0.28883997,0.13570818,-1.9005382,0.0032608304,-0.017869439,-0.187447,0.00629964,0.06336067,0.2056714,-0.008262906307332339,-0.4869598237652696,90.30549949616746
1729571586227364,-0.28927618,0.13539115,-1.9031368,0.0033297911,-0.017372372,-0.1857972,0.008620089,0.062133417,0.2062246,-0.011741231930869692,-0.4902945714509527,90.29560903411863
1729571586243364,-0.2901117,0.13478509,-1.9082031,0.0034990422,-0.016364038,-0.18234786,0.010578194,0.06302085,0.21558347,-0.01859855358058408,-0.4954360798543778,90.27552753000516
1729571586251364,-0.2912657,0.13435066,-1.9108009,0.0032719646,-0.016046355,-0.18063152,-0.028384702,0.03971043,0.21454318,-0.021740057351546316,-0.4974157350804307,90.26542526862598
1729571586259364,-0.29239148,0.13392653,-1.9133539,0.0030682818,-0.015721334,-0.17892757,-0.02546035,0.040627547,0.21299346,-0.024480165880023528,-0.4986478837215133,90.25621776608787
1729571586267364,-0.29348966,0.13351262,-1.9158628,0.0028787164,-0.015387446,-0.17720674,-0.023695668,0.041736055,0.21510383,-0.027245779811556046,-0.49943856147027715,90.24702390733786
1729571586283364,-0.2956062,0.13271502,-1.9207511,0.0025138315,-0.014705186,-0.17371196,-0.022805309,0.04264124,0.218424,-0.033062601482937645,-0.499504144450401,90.22841764295325
1729571586291364,-0.2966248,0.13232915,-1.9231318,0.0023738432,-0.014360459,-0.17194493,-0.017498532,0.043090895,0.22087803,-0.036100122716236034,-0.49907532035461916,90.2193057341137
1729571586299364,-0.29761815,0.1319529,-1.9254712,0.0022610386,-0.014025838,-0.17018922,-0.014100572,0.041827556,0.21946429,-0.03930658822956091,-0.4985516170978621,90.21302850675691
1729571586307364,-0.29858676,0.13158609,-1.92777,0.0021609713,-0.013677001,-0.16845171,-0.012508418,0.04360464,0.21718813,-0.04280415002667407,-0.49821468392616486,90.20693566341365
1729571586315364,-0.2995312,0.13122874,-1.9300292,0.0020714109,-0.013306329,-0.1667022,-0.01119505,0.046333995,0.21868943,-0.04655603884931863,-0.4979191603570639,90.20084968897301
1729571586331364,-0.30134973,0.13054182,-1.9344298,0.0019310077,-0.012581426,-0.16311654,-0.008775197,0.045306455,0.22410321,-0.05523629567922979,-0.49751472319358825,90.18890315661055
1729571586339364,-0.30222484,0.1302119,-1.9365724,0.0018868068,-0.012217503,-0.16135386,-0.0055251145,0.045490332,0.220336,-0.06035797071728901,-0.49736162513672316,90.18309724166897
1729571586347364,-0.3030778,0.12989086,-1.9386778,0.0018681013,-0.011839287,-0.15960509,-0.002338187,0.04727696,0.2185963,-0.06617437995725566,-0.49720431141729987,90.17746209801723
1729571586363364,-0.30472267,0.12927167,-1.9427787,0.0018775335,-0.011061365,-0.156062,0.00058951264,0.048620157,0.22144242,-0.07919339549712265,-0.49713878182293375,90.16855516477325
1729571586371364,-0.30551332,0.12897505,-1.9447752,0.0019297622,-0.010671169,-0.154263,0.0065285857,0.048774526,0.22487527,-0.08626234136790573,-0.4971681847597391,90.16515358714646
1729571586379364,-0.3066338,0.1287308,-1.9470472,0.0018263864,-0.010270316,-0.15251237,-0.012921969,0.050106548,0.21882913,-0.09353888731452088,-0.4974140274687882,90.16186129627391
1729571586387364,-0.3077266,0.12849371,-1.9492759,0.0017216855,-0.009868962,-0.15079212,-0.0130876135,0.050169297,0.21503119,-0.10077294359702209,-0.49761376467109636,90.15820700268408
1729571586395364,-0.30879235,0.12826364,-1.9514618,0.0016376326,-0.009467555,-0.14907935,-0.010506613,0.050175816,0.21409614,-0.10796182852964518,-0.49774300953245143,90.15492836341312
1729571586411364,-0.3108447,0.12782454,-1.955709,0.0015688264,-0.008631434,-0.14559832,-0.004300389,0.052257556,0.21756439,-0.12244953280577539,-0.4979726299509249,90.14936154217648
1729571586419364,-0.31183222,0.12761548,-1.9577717,0.0015462243,-0.008217069,-0.14391734,-0.002825254,0.05179562,0.21012312,-0.13005421433552058,-0.4981072111062551,90.14690258952803
1729571586427364,-0.3127947,0.12741381,-1.9597949,0.0015693629,-0.007778227,-0.14222446,0.002892324,0.054855306,0.21160951,-0.13792529582240293,-0.4980012324484178,90.14462121879964
1729571586443364,-0.31464538,0.12703189,-1.9637264,0.0016880895,-0.0068637817,-0.13891259,0.0074204067,0.05715282,0.20699202,-0.1548282109215843,-0.4970895279018635,90.14013357808246
1729571586451364,-0.3155344,0.12685163,-1.965636,0.0017700512,-0.006400257,-0.13724066,0.010245217,0.057940602,0.20899063,-0.16358473620086275,-0.49644415749004533,90.13835078728879
1729571586459364,-0.31639978,0.12667854,-1.9675093,0.0018768643,-0.0059253233,-0.13563655,0.013351643,0.059366688,0.20051374,-0.17264592980282992,-0.49576853040489,90.13658168277227
1729571586467364,-0.31724182,0.12651262,-1.9693471,0.0020243248,-0.0054532774,-0.134061,0.018432561,0.059005745,0.1969449,-0.1817238879304717,-0.49502214425645097,90.1350174993982
1729571586483364,-0.31885666,0.12620161,-1.9729197,0.0024030367,-0.0045435694,-0.13095021,0.023669489,0.056856744,0.19442382,-0.19974715466072307,-0.49326026345244206,90.13243555922382
1729571586491364,-0.31963027,0.12605645,-1.9746556,0.0026108322,-0.004089193,-0.12938873,0.02597444,0.056797054,0.19518471,-0.20866480547099484,-0.4922844708076827,90.13139731126277
1729571586499364,-0.32087767,0.12547007,-1.9768351,0.0026444176,-0.0038987123,-0.1279541,0.0041981693,0.023810076,0.17932987,-0.2175886036335289,-0.4913815185482549,90.13063228048442
1729571586507364,-0.32209212,0.12489917,-1.9789704,0.002702739,-0.0037026813,-0.12658016,0.007290189,0.024503881,0.17174146,-0.2262322993595023,-0.4899899765574222,90.13449146050704
1729571586523364,-0.32442448,0.12380259,-1.9831127,0.0029125283,-0.0032714093,-0.123826325,0.013111828,0.026954496,0.17211492,-0.24346974547855618,-0.48690539372970604,90.14268111407203
1729571586531364,-0.3255435,0.12327638,-1.9851211,0.0030675223,-0.0030473538,-0.122398704,0.019374244,0.028006935,0.17845257,-0.25220600009094934,-0.4851704632574715,90.14697742633115
1729571586539364,-0.3266318,0.12276447,-1.9870887,0.003230026,-0.0028288844,-0.121000856,0.02031296,0.027308676,0.174731,-0.26097935255044225,-0.48362187596397543,90.1513967193428
1729571586547364,-0.32768995,0.12226658,-1.9890164,0.0034387307,-0.0025886267,-0.119626716,0.02608809,0.030032212,0.17176753,-0.269909788716657,-0.482445547520005,90.15583646567198
1729571586555364,-0.32871833,0.121782556,-1.9909053,0.0036655487,-0.002333388,-0.118235834,0.028352251,0.03190484,0.17386022,-0.278995645048346,-0.4817405723374502,90.16035822168185
1729571586571364,-0.33068806,0.12085733,-1.9945685,0.0041838554,-0.0018011432,-0.11539319,0.032394163,0.0332653,0.17766514,-0.29774871194861585,-0.4813364563263285,90.16970225997505
1729571586579364,-0.3316303,0.12041561,-1.9963441,0.004489479,-0.0015207533,-0.11402169,0.038202967,0.035048738,0.17143784,-0.3072109711497026,-0.4816480947112409,90.17271452730871
1729571586587364,-0.33254462,0.11998684,-1.9980841,0.0048048766,-0.0012343321,-0.11267253,0.039424688,0.035802644,0.16864482,-0.31651947918197976,-0.48238796911881326,90.17576092688776
1729571586595364,-0.33343166,0.11957079,-1.9997888,0.005133717,-0.0009404101,-0.111304484,0.041105025,0.03674025,0.17100571,-0.32573385899910906,-0.4833706974862613,90.17870486029909
1729571586611364,-0.3351256,0.118776165,-2.003095,0.0058537987,-0.00032021492,-0.108531095,0.045005113,0.038762197,0.17333682,-0.3438226637345642,-0.48570627881251716,90.18493434643405
1729571586619364,-0.33593333,0.11839713,-2.0046978,0.0062357285,-6.3965854e-07,-0.107186966,0.047741223,0.039946906,0.16801617,-0.3525001978830375,-0.48693874546713156,90.18809686560675
1729571586627364,-0.33702156,0.11828878,-2.0060081,0.0064891824,0.0004367711,-0.10582627,0.03168173,0.054676346,0.1700865,-0.3610587593533809,-0.48805162633622534,90.19131403972594
1729571586643364,-0.33910134,0.118085854,-2.0085547,0.0070655355,0.0013295495,-0.10306507,0.03602207,0.055798646,0.172575,-0.3767561066530459,-0.4905455900982225,90.19849295062905
1729571586651364,-0.34009558,0.11799337,-2.0097916,0.007385621,0.0017639865,-0.10169878,0.040010665,0.05430463,0.17078686,-0.3840529491011335,-0.4918827021287344,90.2032743246853
1729571586659364,-0.34106,0.11790678,-2.0110052,0.0077351816,0.002194323,-0.100420654,0.043695092,0.05379207,0.15976559,-0.39121753719583957,-0.49305369593926335,90.20808304686184
1729571586667364,-0.3419951,0.11782618,-2.0121958,0.008117135,0.0026385617,-0.099187866,0.047744133,0.055529814,0.1540985,-0.39825323570211985,-0.49382420186775394,90.21278243475449
1729571586683364,-0.34377873,0.11768316,-2.014512,0.0089375265,0.0035399145,-0.09677792,0.051274486,0.05633455,0.1506214,-0.41184585739140994,-0.49409208330435045,90.22176453162294
1729571586691364,-0.3446283,0.11762078,-2.0156384,0.009367748,0.003981042,-0.09560105,0.053777706,0.055140957,0.14710891,-0.41853994230959546,-0.49378119142296373,90.22597211885427
1729571586699364,-0.34545028,0.11756457,-2.0167444,0.00983558,0.0044446397,-0.09449633,0.058479022,0.05794968,0.13808998,-0.42536489571857666,-0.49351266964490603,90.230049901367
1729571586707364,-0.34624535,0.117515594,-2.017831,0.010317251,0.004903815,-0.09345741,0.06020884,0.05739694,0.12986548,-0.4322395011480829,-0.49321293062206717,90.2340184247588
1729571586715364,-0.34701356,0.11747282,-2.0188985,0.010826518,0.005359833,-0.092411056,0.06365834,0.057002235,0.130794,-0.4390071429614724,-0.49277578233309066,90.2369896840012
1729571586731364,-0.348471,0.1174055,-2.0209773,0.011878388,0.0062454306,-0.090323925,0.06574188,0.055349838,0.13044569,-0.4520456839987375,-0.4914115618133589,90.24254282679885
1729571586739364,-0.3491612,0.11738097,-2.0219896,0.012420627,0.006707979,-0.089357786,0.067779906,0.05781854,0.120767385,-0.45807891197345146,-0.49036180858769124,90.2450359438986
1729571586747364,-0.34982616,0.11736274,-2.0229847,0.013002166,0.007191262,-0.088457026,0.07269228,0.06041041,0.11259503,-0.4638307102948094,-0.48896589105945765,90.24746749878013
1729571586763364,-0.35015082,0.11821577,-2.0244882,0.014424052,0.008405181,-0.08658584,0.0888679,0.075869896,0.11694896,-0.47459345787905394,-0.48561444148550714,90.25190722485205
1729571586771364,-0.35029414,0.118636124,-2.025224,0.015153195,0.009002659,-0.085683666,0.09114283,0.07468473,0.11277198,-0.47949635076526204,-0.48355581287503363,90.25399727176018
1729571586779364,-0.35042447,0.119051255,-2.0259497,0.015906818,0.009594569,-0.08486659,0.09420293,0.0739888,0.102134414,-0.48426618330325283,-0.48116628256359256,90.25610779306308
1729571586787364,-0.35054204,0.119462885,-2.0266662,0.016670953,0.010183159,-0.084076576,0.095516905,0.07357378,0.09875185,-0.4884759329521892,-0.4785078050059687,90.25961176723895
1729571586803364,-0.35073894,0.12027662,-2.0280719,0.018212559,0.011334834,-0.08256686,0.09635032,0.07197965,0.09435741,-0.49557910408329314,-0.4721980405204717,90.26608000108709
1729571586811364,-0.3508183,0.12067906,-2.0287614,0.018998437,0.011901697,-0.08185529,0.098234735,0.07085793,0.088945955,-0.49864064126890323,-0.46853821645815935,90.26909208723004
1729571586819364,-0.3508849,0.12107881,-2.029443,0.019801484,0.012462601,-0.08122651,0.10038097,0.07011299,0.0785971,-0.5012863064735414,-0.4645938648802663,90.27211784662218
1729571586827364,-0.35093883,0.12147607,-2.0301168,0.020603042,0.013015442,-0.08063517,0.10019471,0.06910507,0.07391814,-0.503407665136591,-0.4602863298107528,90.27493867638672
1729571586843364,-0.3510082,0.1222639,-2.0314436,0.02225375,0.014118455,-0.0795158,0.10316923,0.06893836,0.06996048,-0.5062765430283791,-0.45106811101592864,90.28000654565382
1729571586851364,-0.3510219,0.12265521,-2.0320966,0.023095574,0.014681991,-0.078979425,0.10522804,0.070441976,0.06704684,-0.5068379660566326,-0.44620846920591434,90.2823970389038
1729571586859364,-0.35102275,0.12304488,-2.032743,0.023957355,0.015230168,-0.07850364,0.10772259,0.06852206,0.059473325,-0.5067895027082066,-0.4414156403761572,90.28448696172599
1729571586867364,-0.35101086,0.123432904,-2.0333834,0.024814777,0.01574675,-0.07804494,0.107177764,0.06457278,0.05733687,-0.5060901432713375,-0.43648842142620053,90.2862695521296
1729571586883364,-0.35109577,0.12514828,-2.033595,0.026414469,0.01734977,-0.076744206,0.099980734,0.10018877,0.08129607,-0.5030153378384968,-0.425775206528084,90.28965703562022
1729571586891364,-0.35111758,0.12599081,-2.0337102,0.027232286,0.01814875,-0.07612714,0.102227084,0.09987247,0.07713307,-0.5004543842064424,-0.41992509690700064,90.2911868467677
1729571586899364,-0.3511258,0.12682372,-2.0338316,0.028027864,0.018919215,-0.075590625,0.09944732,0.09630806,0.06706454,-0.49742465875700326,-0.4136735208130276,90.29257318495888
1729571586907364,-0.3511206,0.12764731,-2.0339596,0.028835693,0.019664092,-0.07514952,0.10097864,0.09310967,0.055138018,-0.4938866470570538,-0.4068826979297465,90.29389121811631
1729571586923364,-0.3510724,0.12926896,-2.0342364,0.030446073,0.021097882,-0.074378654,0.10064872,0.08961185,0.048179176,-0.4861803720905507,-0.3912909721315378,90.29572803185424
1729571586931364,-0.35102877,0.13006684,-2.0343852,0.031234682,0.021797815,-0.07406311,0.09857607,0.0874917,0.03944337,-0.4821936953413977,-0.3824775860154524,90.29634247227378
1729571586939364,-0.35097244,0.13085645,-2.0345414,0.032012712,0.022471081,-0.073872544,0.09725382,0.084158264,0.023820436,-0.47792560181168464,-0.3730848578682117,90.29703202640793
1729571586947364,-0.3509035,0.13163808,-2.0347056,0.032795537,0.023145352,-0.07378231,0.097853124,0.084283754,0.011279247,-0.4731679105738802,-0.36296956591038154,90.29749618134682
1729571586963364,-0.35072815,0.13317838,-2.0350587,0.034390587,0.024407865,-0.07359262,0.09969062,0.07890712,0.011855735,-0.4618948203917568,-0.341171192477525,90.29786433929507
1729571586971364,-0.35062203,0.13393733,-2.035247,0.0351717,0.025012871,-0.07355392,0.09763892,0.07562572,0.0048372895,-0.45542737144291506,-0.32967565369505647,90.29785034154277
1729571586979364,-0.35050386,0.13468908,-2.0354438,0.03595364,0.025595333,-0.073625386,0.097742766,0.07280777,-0.008933246,-0.4486369761859654,-0.3178277010024723,90.29774749794738
1729571586987364,-0.35037288,0.13543387,-2.0356493,0.0367144,0.026158296,-0.07376595,0.095095016,0.070370264,-0.017570332,-0.44148473610685574,-0.3057996931361514,90.29755591532393
1729571586995364,-0.35023025,0.13617171,-2.0358639,0.037481558,0.026681185,-0.073883206,0.09589455,0.06536115,-0.014657154,-0.43421213190584285,-0.2935788500909275,90.29728921879727
1729571587011364,-0.34886527,0.13753346,-2.0366611,0.039128263,0.027812595,-0.07406591,0.10291906,0.07071311,-0.011418945,-0.4191038345954262,-0.26923792323469964,90.29806722045585
1729571587019364,-0.3481868,0.13820802,-2.0370648,0.039951105,0.028341694,-0.07421643,0.10285526,0.0661374,-0.01881551,-0.41140162035726746,-0.256920534376476,90.2989207423539
1729571587027364,-0.34751067,0.1388784,-2.0374718,0.04076933,0.028842527,-0.074404925,0.10227831,0.0626042,-0.023561528,-0.4036031041074628,-0.24463127881791719,90.29966498017025
1729571587043364,-0.34616438,0.1402068,-2.038297,0.04237432,0.029813416,-0.074788116,0.100311816,0.060680553,-0.023949424,-0.3869948869625154,-0.21996206009912772,90.30103050916898
1729571587051364,-0.34549382,0.14086477,-2.0387151,0.04316326,0.030258164,-0.07498138,0.09861728,0.055593435,-0.024157574,-0.37793842202358985,-0.20755205359660672,90.30150157348476
1729571587059364,-0.3448241,0.14151654,-2.0391376,0.043939065,0.030667022,-0.07524738,0.09697582,0.051107254,-0.03325008,-0.36841162945405576,-0.19513231841900244,90.30196578895354
1729571587067364,-0.34415567,0.14216399,-2.0395641,0.04471896,0.031052902,-0.07551809,0.09748665,0.048235055,-0.033838674,-0.35830524924844104,-0.18287214217225198,90.30367314103003
1729571587075364,-0.34348828,0.14280711,-2.0399952,0.045480553,0.031428695,-0.07581686,0.095199324,0.046974044,-0.037346967,-0.3477085895093032,-0.17068845408043454,90.30525760293787
1729571587091364,-0.3421563,0.14408037,-2.0408707,0.046960786,0.032104157,-0.076377705,0.09251455,0.042216383,-0.035052653,-0.3257570062194796,-0.14673610255080866,90.3081874306998
1729571587099364,-0.34149146,0.14471038,-2.0413148,0.047676284,0.03241883,-0.07668641,0.08943723,0.03933394,-0.03858842,-0.3145294476975537,-0.13525534686785992,90.30958069956817
1729571587107364,-0.34082723,0.14533609,-2.0417635,0.04837466,0.032733355,-0.07700937,0.08729705,0.03931578,-0.040370036,-0.30296877189931354,-0.12412253687098694,90.31092608253894
1729571587115364,-0.34016365,0.14595746,-2.042217,0.049038414,0.03300012,-0.07729763,0.082969196,0.03334554,-0.03603194,-0.2912834750541321,-0.11299298657861209,90.31223053912271
1729571587131364,-0.3381965,0.14642166,-2.0439923,0.050499134,0.033304542,-0.0779127,0.09129499,0.019026455,-0.038442202,-0.2677000061801909,-0.09099665420445407,90.31543376100043
1729571587139364,-0.3372258,0.14666177,-2.0448694,0.051211584,0.033421144,-0.078247264,0.08905632,0.014575197,-0.041820105,-0.256104328792837,-0.08016500928849715,90.31666995118886
1729571587147364,-0.33626297,0.1469065,-2.0457397,0.051917937,0.033537023,-0.07859398,0.08829403,0.014484859,-0.043339092,-0.24438898525475874,-0.06947488032325518,90.31785834896986
1729571587163364,-0.3343601,0.14740866,-2.047461,0.053240422,0.033703186,-0.07917057,0.08265534,0.010385177,-0.03603706,-0.22035554368332455,-0.0485376045539498,90.32003712765638
1729571587171364,-0.3334195,0.14766556,-2.0483117,0.053901713,0.033773717,-0.07938824,0.08266139,0.008816365,-0.027208587,-0.2080748750737475,-0.038465660613563886,90.32109575247155
1729571587179364,-0.33248577,0.14792597,-2.0491562,0.054527238,0.03381556,-0.079635695,0.07819058,0.005230307,-0.030932015,-0.1956427034929114,-0.028902553678389453,90.32198366317756
1729571587187364,-0.33155876,0.14818954,-2.0499945,0.055135228,0.033845514,-0.07987259,0.075998716,0.0037443822,-0.02961233,-0.1829686616279867,-0.01984028587278915,90.3227759718389
1729571587195364,-0.33063868,0.14846008,-2.050827,0.0557036,0.033867434,-0.08007611,0.071046405,0.0027399508,-0.025440006,-0.1701938099526766,-0.011386699153732553,90.32363656198511
1729571587211364,-0.32881752,0.1490087,-2.0524743,0.056824856,0.033869766,-0.080338664,0.07007853,0.00014575198,-0.016409438,-0.14422020898578128,0.0038972098938792137,90.31723656506851
1729571587219364,-0.32791612,0.14928631,-2.053289,0.057328153,0.03385113,-0.080489695,0.06291223,-0.0023292378,-0.01887884,-0.1311130132741112,0.01104771098903402,90.31401268955257
1729571587227364,-0.3270207,0.14956586,-2.054098,0.057830382,0.03382306,-0.08062616,0.06277859,-0.0035087576,-0.017058104,-0.11803335907795547,0.017909199857492977,90.31065904188972
1729571587243364,-0.32524693,0.15012982,-2.055699,0.05880125,0.033713162,-0.080730096,0.060679156,-0.0068687364,-0.0064959745,-0.09181245609335296,0.030921771982743554,90.30370578917648
1729571587251364,-0.32408655,0.150393,-2.0569553,0.0593523,0.033728275,-0.08068876,0.06888155,0.0018891877,0.005166977,-0.07871626225709295,0.0367543276668014,90.3000994092581
1729571587259364,-0.32293788,0.15065926,-2.0581923,0.05990225,0.033731908,-0.08068156,0.06874371,0.00045401973,0.00089965755,-0.0657712804164155,0.04193078185150231,90.29775668588613
1729571587267364,-0.3218012,0.15092881,-2.0594103,0.06040582,0.033729363,-0.08070056,0.06294623,-0.00031804663,-0.0023748726,-0.05267805004687268,0.046534127286844425,90.29536608038634
1729571587283364,-0.3195612,0.15147573,-2.061792,0.061381545,0.033688307,-0.08056123,0.060982767,-0.0025660263,0.008708332,-0.025770015670064147,0.05429815773949657,90.28981310262665
1729571587291364,-0.31845728,0.15175281,-2.0629554,0.061837398,0.033663154,-0.080435224,0.05698157,-0.0031441448,0.015750527,-0.012048376605232577,0.0574948612154845,90.28694442385272
1729571587299364,-0.31736383,0.15203212,-2.0641012,0.06226847,0.03362866,-0.080302656,0.053883992,-0.004311558,0.016571023,0.0017326144820673144,0.060436253057049284,90.28395276850007
1729571587307364,-0.31628057,0.15231353,-2.06523,0.06267514,0.03359203,-0.0801836,0.05083391,-0.0045788474,0.0148816025,0.015534739795840623,0.06302854480566952,90.28083817102944
1729571587323364,-0.3141441,0.15288171,-2.0674367,0.063412964,0.033473033,-0.07976585,0.046113968,-0.007437309,0.026109627,0.04320610882715906,0.0675307629699566,90.27436992155596
1729571587331364,-0.31309053,0.15316826,-2.0685148,0.063760154,0.03340225,-0.07952034,0.043398697,-0.00884803,0.03068894,0.057115468454067134,0.06973554161186667,90.2709479844225
1729571587339364,-0.31204346,0.15345334,-2.0695767,0.06407045,0.033338666,-0.07932381,0.03878679,-0.007947907,0.024565494,0.07103995744146067,0.07186979059418881,90.26751238633898
1729571587347364,-0.31100586,0.15373985,-2.0706234,0.06436986,0.033260528,-0.079127155,0.03742613,-0.0097672455,0.024582257,0.08498232728165615,0.07407663717720632,90.26659710245563
1729571587363364,-0.30895823,0.15431651,-2.0726707,0.06488894,0.033067863,-0.078574225,0.032442622,-0.012041534,0.03455812,0.1127936541453802,0.07821772316408758,90.26461633571381
1729571587371364,-0.30794817,0.15460627,-2.0736713,0.065103255,0.03295832,-0.07820794,0.026789492,-0.013692769,0.045785677,0.12670813043633394,0.08022032453680498,90.26363281383223
1729571587379364,-0.3067886,0.15433088,-2.0743139,0.065413915,0.032577932,-0.07783406,0.038832426,-0.04754867,0.046734694,0.1404582190085821,0.0822303365035994,90.26282001346073
1729571587387364,-0.3056408,0.1540683,-2.074951,0.06566119,0.032215796,-0.07745691,0.030909663,-0.04526693,0.047144476,0.15401942583086167,0.08465479609605299,90.25974642611432
1729571587395364,-0.3045046,0.15381816,-2.0755823,0.06592537,0.031864844,-0.077021584,0.033021905,-0.043869015,0.05441531,0.16769954411543414,0.08703030387115995,90.25678893488573
1729571587411364,-0.30226538,0.15335463,-2.0768268,0.06635068,0.031155735,-0.076086715,0.026582273,-0.04431931,0.058429312,0.19485971133745159,0.09167856008011492,90.2509696032761
1729571587419364,-0.30116218,0.15314029,-2.0774403,0.066521965,0.030796248,-0.07570938,0.021410173,-0.044935845,0.047166828,0.20849637908167068,0.09350323015725316,90.24714463950836
1729571587427364,-0.30006996,0.15293646,-2.078049,0.06668845,0.03043567,-0.07536336,0.020810401,-0.045072284,0.04325248,0.22210847324187644,0.09479350399222045,90.24334704032972
1729571587443364,-0.2979175,0.15255883,-2.0792513,0.0669508,0.029736515,-0.074589066,0.016396865,-0.043697186,0.04839338,0.2497140326820572,0.09541950103022154,90.23573127898675
1729571587451364,-0.29685703,0.15238431,-2.0798447,0.06703915,0.029388482,-0.07420255,0.011043622,-0.04350417,0.048314217,0.2634913587934241,0.09500125808780319,90.23201565422995
1729571587459364,-0.29580703,0.15221874,-2.0804338,0.067098565,0.029030565,-0.07388621,0.007427297,-0.04473957,0.03954302,0.27711004855416643,0.09413108813426878,90.22845706728302
1729571587467364,-0.2947674,0.15206176,-2.0810187,0.067142375,0.028685998,-0.07359955,0.0054761763,-0.04307087,0.035832636,0.29052850356027493,0.09294410106035095,90.2248575136537
1729571587483364,-0.29272044,0.151774,-2.0821753,0.06718077,0.028014202,-0.07291348,0.0023995526,-0.041987278,0.04287902,0.31694812393235466,0.08947819588101197,90.217057341585
1729571587491364,-0.29171202,0.15164182,-2.0827467,0.067144714,0.027692739,-0.072548255,-0.00450667,-0.04018284,0.04565343,0.32983779335412644,0.08730540606660783,90.21272696329274
1729571587499364,-0.2905466,0.15114029,-2.0827491,0.067208014,0.027154526,-0.07212309,0.007912517,-0.06727664,0.05314592,0.342583888908082,0.0847273535950363,90.20848535226472
1729571587507364,-0.28939402,0.15065318,-2.082762,0.06724731,0.026624218,-0.07176965,0.004911795,-0.06628851,0.044180077,0.35478923341902324,0.08200494669960565,90.20173708862457
1729571587515364,-0.2882541,0.15018003,-2.0827851,0.067282476,0.026103014,-0.0714029,0.0043958426,-0.06515043,0.04584342,0.3668939396847892,0.07901572213006383,90.19508438827035
1729571587531364,-0.28601167,0.1492738,-2.0828602,0.06724515,0.025127646,-0.0706493,-0.002332963,-0.06096053,0.047099773,0.390462784474313,0.07226671561241112,90.18156054134774
1729571587539364,-0.28490886,0.14884011,-2.0829117,0.0671926,0.024675207,-0.0704006,-0.0065686177,-0.056554794,0.031087546,0.40187516545689556,0.06823187170814374,90.1747302741709
1729571587547364,-0.2838185,0.14841942,-2.0829735,0.067136474,0.024220604,-0.070209876,-0.0070156525,-0.056825344,0.023840925,0.4132735109337384,0.06358537898570149,90.16821422770862
1729571587563364,-0.28167352,0.14761415,-2.0831265,0.066935994,0.023372006,-0.06984247,-0.012530013,-0.05303742,0.022962688,0.43588268646381045,0.052741994507684825,90.15417809452147
1729571587571364,-0.28061882,0.14722915,-2.0832174,0.0668046,0.02297965,-0.06967473,-0.016423874,-0.049044374,0.020967795,0.4469377891059603,0.04667367596847673,90.1472727324543
1729571587579364,-0.27957582,0.14685547,-2.0833178,0.06665406,0.022589639,-0.06964497,-0.018818304,-0.048751473,0.0037197021,0.45785594311102934,0.040227282875817956,90.14050399200653
1729571587587364,-0.2785445,0.14649281,-2.0834284,0.06647076,0.022209432,-0.069700114,-0.022912396,-0.047525853,-0.006892718,0.46879719958124033,0.03354675616969941,90.13379670726862
1729571587603364,-0.27651626,0.14579943,-2.0836802,0.06609823,0.02149896,-0.06972572,-0.023283063,-0.044404525,-0.0016004777,0.4907970788001868,0.019990043115473508,90.1207714923847
1729571587611364,-0.27551898,0.14546822,-2.0838203,0.065880336,0.021159936,-0.069736175,-0.027236527,-0.042377967,-0.0013066455,0.5018335023696016,0.013030160099278473,90.1144535459874
1729571587619364,-0.27453703,0.1451474,-2.0839703,0.06563977,0.020842804,-0.0698493,-0.030070541,-0.03964151,-0.01414027,0.5127399729599272,0.0059640891775139,90.10821756268234
1729571587627364,-0.27376908,0.14468978,-2.084002,0.06524307,0.02054206,-0.069978595,-0.049587335,-0.037593067,-0.016162172,0.5233762880813456,-0.001094190969017263,90.1007248520224
1729571587643364,-0.27225503,0.14381567,-2.0841036,0.06440631,0.020019246,-0.070175484,-0.052297484,-0.0326758,-0.012305564,0.5436229397069755,-0.015079136870757697,90.08815727663212
1729571587651364,-0.271509,0.14339846,-2.0841725,0.063961536,0.019747548,-0.070251144,-0.05559716,-0.033962306,-0.009457581,0.5529887572426085,-0.02218362788522586,90.08204425936779
1729571587659364,-0.27077046,0.142994,-2.0842535,0.06350022,0.019499198,-0.07043313,-0.057664696,-0.031043774,-0.022748483,0.5620930130283858,-0.029250953401883766,90.07602686806732
1729571587667364,-0.27003938,0.1426021,-2.0843472,0.06303691,0.019268546,-0.07068952,-0.05791336,-0.028831417,-0.032048672,0.5710257764359777,-0.03631737222890641,90.07026218359049
1729571587675364,-0.26931584,0.14222257,-2.0844536,0.062562115,0.01904879,-0.07090101,-0.05934946,-0.02746959,-0.02643559,0.5799400789216946,-0.0434113524967712,90.06464776315286
1729571587691364,-0.26788884,0.14150089,-2.0847008,0.061536305,0.018646626,-0.071212105,-0.06411318,-0.02513523,-0.019443687,0.5965599137169498,-0.05737053036578621,90.05411561463438
1729571587699364,-0.26718557,0.1411583,-2.0848415,0.061013024,0.01846341,-0.07148812,-0.06541004,-0.022901919,-0.034501776,0.6041657040091511,-0.06411425206731075,90.04885637788495
1729571587707364,-0.26649022,0.14082718,-2.0849943,0.060474176,0.018304018,-0.07181331,-0.06735604,-0.019924015,-0.0406485,0.6114469732238967,-0.07062788248398132,90.04387034091863
1729571587715364,-0.26580274,0.1405074,-2.085159,0.05994509,0.018166747,-0.072084986,-0.06613554,-0.01715892,-0.033959746,0.6183027324962912,-0.07700779139512075,90.03930094448589
1729571587731364,-0.2644517,0.13990116,-2.0855215,0.058807626,0.017908536,-0.07257356,-0.07109158,-0.01613819,-0.030535737,0.6307057067349123,-0.08914633099348236,90.030872494384
1729571587739364,-0.26378822,0.13961414,-2.085719,0.058247395,0.017792558,-0.07290016,-0.07002894,-0.014497199,-0.040825453,0.6360192841966484,-0.0950419658044339,90.02695196303202
1729571587747364,-0.2631327,0.13933761,-2.0859282,0.057676706,0.017682446,-0.07326687,-0.071336046,-0.013764015,-0.045838762,0.6408764728161201,-0.10070606852253727,90.02327048789844
1729571587763364,-0.2605001,0.13873413,-2.085577,0.056939248,0.017485084,-0.07369109,-0.04609115,-0.012335134,-0.02651382,0.649174827686114,-0.11148727382302155,90.01654274926288
1729571587771364,-0.2592219,0.13844892,-2.0854318,0.05654545,0.017391121,-0.07385678,-0.049224585,-0.011745374,-0.02071075,0.6527012354532918,-0.11669148808336222,90.01231485584067
1729571587779364,-0.2579672,0.1381744,-2.0853062,0.05611461,0.017316047,-0.07407604,-0.05385512,-0.009384239,-0.02740789,0.6559875888944557,-0.12176846406506285,90.0082645475574
1729571587787364,-0.25673553,0.13791038,-2.0852005,0.05569768,0.017242791,-0.07438927,-0.052116342,-0.009156996,-0.039153732,0.6591606656377724,-0.12681505192268208,90.00439182209864
1729571587803364,-0.2543391,0.1374129,-2.085047,0.05483256,0.017123632,-0.07490077,-0.054070026,-0.007447437,-0.03196858,0.6649427557753779,-0.13645647636256217,89.99759576653501
1729571587811364,-0.25317356,0.13717917,-2.084998,0.05437499,0.01707937,-0.07513478,-0.05719624,-0.005532754,-0.029250978,0.6675709106274844,-0.14094045533103203,89.99452217165063
1729571587819364,-0.2520292,0.13695513,-2.0849671,0.053914133,0.017039089,-0.07548415,-0.057606954,-0.005035195,-0.043671574,0.6702532912469823,-0.14514098140091633,89.99161933147325
1729571587827364,-0.2509056,0.13674064,-2.084955,0.053453077,0.01700087,-0.07589165,-0.0576321,-0.004777219,-0.050937753,0.6730093592696109,-0.14904017849310217,89.9889589624899
1729571587843364,-0.24871936,0.13633779,-2.0849845,0.052507762,0.016944828,-0.076605126,-0.05908217,-0.003502704,-0.044592187,0.6792774253843321,-0.15615608691196847,89.98527405805417
1729571587851364,-0.24765575,0.13615,-2.0850248,0.0520253,0.016942166,-0.076919444,-0.06030779,-0.00033271496,-0.0392897,0.6828444225111729,-0.15964387222373558,89.98424269199427
1729571587859364,-0.24661125,0.13597119,-2.0850823,0.05152772,0.01695177,-0.07734057,-0.062197443,0.0012004748,-0.052641142,0.6863955864930377,-0.16312085251056968,89.98331378268738
1729571587867364,-0.24558562,0.13580121,-2.0851567,0.051025786,0.016972018,-0.07781843,-0.0627418,0.0025311017,-0.059732232,0.690128207188329,-0.16650287735922276,89.98260002102593
1729571587883364,-0.24438171,0.13467924,-2.084751,0.049900178,0.01658079,-0.07864367,-0.070350476,-0.024451757,-0.05157757,0.6981879873965064,-0.1728356644286029,89.9800011175204
1729571587891364,-0.2437908,0.13414289,-2.0845847,0.049321543,0.016384173,-0.07902795,-0.072329305,-0.024577135,-0.04803482,0.7025882461844802,-0.17560032967821745,89.97807840701147
1729571587899364,-0.24320547,0.13362028,-2.0844421,0.048748594,0.016201518,-0.07949507,-0.071618706,-0.022831837,-0.058390196,0.7072488239448391,-0.17810411286462902,89.97637426152724
1729571587907364,-0.24262752,0.13311328,-2.0843236,0.048148833,0.016047206,-0.080013864,-0.07497007,-0.019289088,-0.06484892,0.7119597076290365,-0.180523052213734,89.97708460182386
1729571587923364,-0.24149376,0.1321447,-2.0841563,0.046967756,0.01575887,-0.08093807,-0.07381732,-0.018020974,-0.05776295,0.7215065053353094,-0.18569491921074083,89.9788911918632
1729571587931364,-0.2409381,0.1316824,-2.0841057,0.046352595,0.015629798,-0.08137812,-0.07689511,-0.016134,-0.05500577,0.7261525646765081,-0.1885751666496887,89.98011721227951
1729571587939364,-0.24039005,0.13123436,-2.084077,0.04572154,0.015515245,-0.08191119,-0.07888208,-0.0143192,-0.06663427,0.7307240327251865,-0.19184198942651307,89.98159936900961
1729571587947364,-0.23984964,0.13080025,-2.0840702,0.04509599,0.015417217,-0.082506575,-0.078193374,-0.01225341,-0.07442292,0.7351919807053565,-0.1955967739825411,89.98324544757726
1729571587955364,-0.2393169,0.13037986,-2.0840852,0.04444959,0.015339029,-0.08305866,-0.080800146,-0.009773532,-0.069011,0.7395692244852117,-0.1997205519139378,89.98512717388091
1729571587971364,-0.23827316,0.12957843,-2.084177,0.043118212,0.015194329,-0.08404733,-0.08321111,-0.009043724,-0.061791852,0.74811809117825,-0.20832029485488185,89.98914675902617
1729571587979364,-0.23776235,0.12919693,-2.084253,0.04243555,0.015146905,-0.084624134,-0.08533289,-0.0059281006,-0.0721002,0.7521459176885523,-0.21289767310185953,89.99203252977125
1729571587987364,-0.23725952,0.128828,-2.0843494,0.0417569,0.015108365,-0.08523527,-0.08483137,-0.004817499,-0.076391734,0.755942018698165,-0.21775984163369577,89.99507881292939
1729571587995364,-0.23676457,0.12847148,-2.0844653,0.041092843,0.015088331,-0.08579829,-0.08300691,-0.0025042098,-0.070378184,0.7594378928135183,-0.222607497472168,89.998278779403
1729571588011364,-0.23683979,0.1277648,-2.0848007,0.039351325,0.015026373,-0.08677356,-0.10884483,-0.0038723808,-0.060954127,0.7658033566628691,-0.2324419268519844,90.00497241830725
1729571588019364,-0.2368712,0.12742935,-2.084994,0.038479988,0.015038519,-0.08727401,-0.10891724,0.0015182885,-0.062556006,0.7686542867535155,-0.23715973287486564,90.00835339199767
1729571588027364,-0.23689902,0.1271056,-2.0852044,0.037596755,0.015042381,-0.08780635,-0.1104041,0.0004827743,-0.066543,0.7712016734038425,-0.2416098267238698,90.01179584128991
1729571588035364,-0.23692371,0.12679192,-2.085431,0.036722634,0.015058531,-0.08828199,-0.10926509,0.002018758,-0.059454698,0.7734109563355562,-0.24589025963513547,90.01544320001483
1729571588051364,-0.23696448,0.12619805,-2.085931,0.034991413,0.015103775,-0.08909918,-0.10820129,0.002827728,-0.051074658,0.7766665435207545,-0.25457804963951464,90.02608474873031
1729571588059364,-0.23698102,0.1259176,-2.0862036,0.034137405,0.0151381185,-0.089573555,-0.10675098,0.0042929314,-0.059296373,0.7774287842024452,-0.2587943997438457,90.0315626264233
1729571588067364,-0.2369954,0.12564793,-2.086491,0.03328002,0.0151954815,-0.09003835,-0.10717334,0.0071703685,-0.058099624,0.7775173742559669,-0.2629263068105433,90.03717711551806
1729571588075364,-0.23700786,0.12538901,-2.0867932,0.03242846,0.015271889,-0.09045479,-0.106445044,0.009550946,-0.05205441,0.7769253626548174,-0.26692646586840413,90.04275062003498
1729571588091364,-0.23702817,0.12490245,-2.0874379,0.03071313,0.015412591,-0.09117806,-0.10720803,0.008793897,-0.04520453,0.7738098267552801,-0.27477524134098524,90.05402742437894
1729571588099364,-0.23703653,0.12467453,-2.08778,0.029877368,0.015503455,-0.09155274,-0.10447017,0.0113579435,-0.046835277,0.7713748197174827,-0.278616493809639,90.05976486738858
1729571588107364,-0.23704123,0.124459065,-2.088135,0.029040787,0.015609299,-0.09197288,-0.10457262,0.013230484,-0.052517276,0.7683046221729636,-0.2822967292014987,90.06552280410307
1729571588115364,-0.23704517,0.12425355,-2.0885031,0.028221227,0.01571666,-0.09235847,-0.102445014,0.013420241,-0.048198733,0.7645851398682864,-0.2858425747768409,90.07042697277153
1729571588131364,-0.23759975,0.123268895,-2.0878963,0.02620798,0.015781833,-0.09268875,-0.12582795,0.0040732557,-0.020642297,0.7559138865659604,-0.2927987842500202,90.08106859186344
1729571588139364,-0.23786944,0.122801825,-2.0876365,0.025201024,0.015828008,-0.09287648,-0.12586941,0.005771871,-0.023466533,0.7508689990522083,-0.296039351588765,90.08668311496702
1729571588147364,-0.23813447,0.12235118,-2.087405,0.024227882,0.015888985,-0.09311226,-0.12164283,0.0076221763,-0.029472632,0.7453442949960932,-0.2990921938346832,90.092161030802
1729571588163364,-0.23865142,0.12149794,-2.087024,0.022306722,0.01604836,-0.09347898,-0.12007251,0.00996096,-0.022919847,0.7328895510525464,-0.3044573284854984,90.10317151322376
1729571588171364,-0.23890391,0.121094696,-2.0868726,0.021365402,0.016128456,-0.09362331,-0.11766492,0.01001195,-0.01804158,0.7259923685926313,-0.3069358419777013,90.10860162549905
1729571588179364,-0.23915665,0.1207064,-2.0867465,0.020451931,0.016234836,-0.09388094,-0.114183865,0.013297423,-0.032203272,0.718506734763628,-0.3094843665043575,90.11405224477566
1729571588187364,-0.23940568,0.12033308,-2.0866458,0.019549748,0.016354788,-0.09421494,-0.11277291,0.01499406,-0.041750256,0.7106144600246141,-0.31231125266405246,90.11973507583137
1729571588203364,-0.23989342,0.1196303,-2.0865197,0.017774196,0.016621958,-0.094809294,-0.11097197,0.016698148,-0.037147198,0.6936966148212768,-0.31850411360271735,90.13082757097214
1729571588211364,-0.24013253,0.11930032,-2.086492,0.016913438,0.01677879,-0.09509228,-0.10759476,0.019603875,-0.035373494,0.6845379154441266,-0.32197689215356595,90.1361620725875
1729571588219364,-0.24036863,0.118984364,-2.0864878,0.016066631,0.016948484,-0.09546527,-0.10585086,0.021211801,-0.046623867,0.675154987110332,-0.3255868915350729,90.14144197623793
1729571588227364,-0.24060188,0.11868215,-2.086507,0.015234766,0.017125739,-0.09587783,-0.10398321,0.02215686,-0.05157012,0.6655067153292261,-0.3292790425984268,90.1465921009817
1729571588243364,-0.2410607,0.11811813,-2.086613,0.013639748,0.017523568,-0.09658661,-0.09968859,0.024864333,-0.044298355,0.645855265674984,-0.336388962604124,90.15648251862591
1729571588251364,-0.2416177,0.1176254,-2.0865269,0.012740133,0.017557787,-0.09687856,-0.112451844,0.0042773318,-0.036493875,0.6358600377316501,-0.33958570683882194,90.16165996678214
1729571588259364,-0.24216469,0.11714933,-2.086466,0.011866642,0.01760098,-0.09721587,-0.10918639,0.0053991093,-0.042163763,0.6258157827399867,-0.3423429376102527,90.16657786773968
1729571588267364,-0.24270192,0.11668959,-2.08643,0.011026595,0.017653698,-0.09757986,-0.10500592,0.0065898052,-0.04549883,0.6157136652815518,-0.3449184988572375,90.1714137780563
1729571588283364,-0.24374814,0.11581754,-2.08643,0.00939346,0.017767737,-0.0982495,-0.10207091,0.007127411,-0.0418527,0.5952202793279721,-0.34995764360810555,90.18085341697889
1729571588291364,-0.24425758,0.11540452,-2.0864646,0.008613004,0.017843379,-0.09856852,-0.09755696,0.009455252,-0.039877366,0.5847877470569074,-0.35228808921646526,90.18547078614972
1729571588299364,-0.24475822,0.11500646,-2.0865219,0.007852601,0.017917015,-0.09893374,-0.09505043,0.009204494,-0.045652498,0.5742905382469782,-0.3545199226632597,90.18985590562313
1729571588307364,-0.24525028,0.11462306,-2.0866015,0.0071067996,0.018013304,-0.099344015,-0.09322515,0.012036179,-0.051284205,0.5637072561152238,-0.3565607210934795,90.19420005641948
1729571588323364,-0.24620998,0.11389795,-2.0868256,0.005691,0.018233715,-0.1000496,-0.08848748,0.013775657,-0.04409905,0.5423437083684071,-0.3607659855408181,90.20318893238623
1729571588331364,-0.24667771,0.113556415,-2.0869684,0.005017274,0.018371483,-0.10037351,-0.084215716,0.017221086,-0.040488314,0.5318028451364063,-0.36303285315206163,90.20781994895256
1729571588339364,-0.24713759,0.11322859,-2.0871315,0.0043545747,0.01849437,-0.1007342,-0.08283741,0.015360768,-0.045086253,0.5214651265915555,-0.3653937450658605,90.21219828426024
1729571588347364,-0.24758989,0.112914085,-2.0873144,0.0037051297,0.018628985,-0.10109635,-0.08118062,0.016826903,-0.045268793,0.5111829271301194,-0.3679773703908111,90.21654245799547
1729571588363364,-0.24847202,0.112324014,-2.0877373,0.0025067416,0.018921379,-0.10175506,-0.074899256,0.018274644,-0.041169576,0.49074649758319366,-0.37303555139497535,90.22482783878417
1729571588371364,-0.24890216,0.112048164,-2.087976,0.0019251448,0.01909589,-0.10204248,-0.07269959,0.021813901,-0.03592763,0.4804353892929883,-0.37559457906649285,90.2287416978429
1729571588379364,-0.25029144,0.11130793,-2.0880487,0.0010135071,0.019094719,-0.10231849,-0.1139547,-0.00014645047,-0.034500845,0.47012483732100957,-0.3780785271323171,90.23258046700737
1729571588387364,-0.25164953,0.110589944,-2.0881436,0.0001268831,0.019123172,-0.102610484,-0.110828,0.0035567207,-0.036499463,0.46006093825260425,-0.38039099702712703,90.23656264684006
1729571588395364,-0.25297913,0.10989475,-2.0882597,-0.00072357006,0.01915429,-0.10287066,-0.10630664,0.0038896685,-0.032521784,0.44994586096896466,-0.3827537879485212,90.24113226153696
1729571588411364,-0.2555557,0.10857054,-2.0885534,-0.0023555194,0.019249935,-0.103321284,-0.10199683,0.00597781,-0.028164124,0.42947951666438017,-0.3875334008473445,90.2498821289503
1729571588419364,-0.2568042,0.10794069,-2.0887296,-0.0031302217,0.01932819,-0.10357295,-0.09683778,0.009781914,-0.031458214,0.4189296672555008,-0.3901831483840697,90.25406925577933
1729571588427364,-0.25802705,0.10733185,-2.0889254,-0.0038777662,0.019421563,-0.103847645,-0.09344305,0.011671566,-0.034336932,0.4081205298462799,-0.39284906547378784,90.2581676071328
1729571588435364,-0.25922492,0.10674359,-2.08914,-0.004617738,0.019522974,-0.10407702,-0.09249648,0.012676463,-0.028671695,0.3970165399547963,-0.3959310479075406,90.26200639540812
1729571588451364,-0.2615485,0.10562556,-2.089623,-0.0059693106,0.019754695,-0.10448866,-0.08447328,0.014482531,-0.025727784,0.3737253771313198,-0.4031201835555459,90.26980011083222
1729571588459364,-0.26267523,0.10509505,-2.0898902,-0.006598664,0.019896936,-0.104706526,-0.07866916,0.017780112,-0.027232802,0.3613310018763459,-0.4070170906276017,90.27523727501867
1729571588467364,-0.2637792,0.10458357,-2.0901744,-0.007212062,0.020039974,-0.10492124,-0.07667474,0.017879764,-0.026838852,0.3484112202302192,-0.411115602071934,90.28051051784475
1729571588483364,-0.26592073,0.1036164,-2.0907917,-0.008315217,0.020395879,-0.105329,-0.06894717,0.022244057,-0.025485175,0.3209649084719961,-0.41908018519612067,90.2905925600741
1729571588491364,-0.26695916,0.10316011,-2.0911236,-0.00882607,0.020573908,-0.10550892,-0.06385671,0.022253718,-0.022490507,0.30657348682710267,-0.422878139696101,90.29536722543502
1729571588499364,-0.26773253,0.102511324,-2.0909944,-0.009195203,0.020619443,-0.10561327,-0.04614156,0.0056917774,-0.013043172,0.2917158223212137,-0.4266710266326295,90.30006672745746
1729571588507364,-0.2684905,0.10188362,-2.0908926,-0.009514693,0.020680686,-0.10572847,-0.039936274,0.007655471,-0.014400109,0.276107940926049,-0.43033301757367254,90.30434956830554
1729571588515364,-0.26923323,0.10127655,-2.090817,-0.009808639,0.020757932,-0.10582829,-0.036743235,0.00965572,-0.012477859,0.2602459417819344,-0.43420392400780605,90.3085504678674
1729571588531364,-0.27067402,0.10012436,-2.090742,-0.010272387,0.020963762,-0.10602945,-0.028984271,0.012864358,-0.012572388,0.2283965139917003,-0.44266109306771534,90.31661759545018
1729571588539364,-0.27137223,0.099577755,-2.0907416,-0.01047408,0.021089135,-0.10619365,-0.025211599,0.015671598,-0.020524485,0.2128736235245544,-0.4471053856748361,90.32035410510785
1729571588547364,-0.2720558,0.0990504,-2.0907655,-0.010632732,0.021236911,-0.106379196,-0.019831466,0.018472085,-0.023193656,0.19763922922648652,-0.451570038769743,90.32401542890328
1729571588563364,-0.27337977,0.09805214,-2.0908835,-0.010921808,0.021559115,-0.10672149,-0.01806725,0.020137753,-0.021393409,0.16829390566513217,-0.4605329716358369,90.33087368736278
1729571588571364,-0.27402046,0.09758056,-2.0909765,-0.0110255545,0.021745132,-0.106882416,-0.012968317,0.023252096,-0.020115634,0.1542595056162871,-0.46513640252851324,90.334118415097
1729571588579364,-0.2746472,0.09712701,-2.0910914,-0.011125536,0.02194522,-0.10708141,-0.0124976495,0.025010899,-0.024874693,0.14060902517908455,-0.46996289228887195,90.33733582606375
1729571588587364,-0.27526435,0.0966901,-2.091228,-0.01117516,0.022164226,-0.107310675,-0.0062030735,0.02737576,-0.028657725,0.12737507705637882,-0.4748390660441495,90.34038244328089
1729571588603364,-0.27645722,0.09586838,-2.0915642,-0.01123613,0.022630652,-0.10774038,-0.0038106225,0.029151676,-0.026856547,0.10253167256066281,-0.4840886399879343,90.3470427276982
1729571588611364,-0.27703333,0.09548301,-2.0917628,-0.011234451,0.022871379,-0.10797214,0.00020989681,0.030090798,-0.028969718,0.09074519626134038,-0.4883124636530943,90.35010984758954
1729571588619364,-0.27759597,0.09511423,-2.0919812,-0.011196679,0.023123622,-0.10822042,0.004721456,0.03153039,-0.031035392,0.07949389133237425,-0.492450962816146,90.35303355548342
1729571588627364,-0.27784598,0.0951277,-2.092212,-0.0110685695,0.023562517,-0.10850595,0.016013741,0.05486188,-0.035691075,0.06877674737940935,-0.4965018961004758,90.35575233651208
1729571588643364,-0.27832854,0.09517921,-2.0927322,-0.010762113,0.024460658,-0.10904037,0.01915352,0.056133837,-0.03340142,0.04901510192580723,-0.5043575002531984,90.3606161616616
1729571588651364,-0.27856097,0.095217206,-2.0930204,-0.01057918,0.024920415,-0.10927731,0.022866646,0.057469584,-0.029616987,0.04027587546582044,-0.5079702776922878,90.36287044722127
1729571588659364,-0.27878788,0.095263675,-2.0933268,-0.01037444,0.025390873,-0.109527685,0.02559251,0.058807198,-0.031297095,0.03212387452935078,-0.5113209381985642,90.36477641047074
1729571588667364,-0.27900866,0.09531838,-2.093651,-0.010158923,0.025861274,-0.10978732,0.026939552,0.058800213,-0.03245473,0.024424593323790607,-0.5142978459719997,90.36647052677804
1729571588683364,-0.27943158,0.09545233,-2.0943506,-0.009674324,0.026828852,-0.11023757,0.030287482,0.060473565,-0.028140375,0.01057938288720625,-0.5188272992494468,90.36931914512557
1729571588691364,-0.27963376,0.095531665,-2.0947251,-0.009420445,0.02729705,-0.110423185,0.031734817,0.058524773,-0.023202037,0.004299034342266329,-0.5202406195401806,90.37043949515079
1729571588699364,-0.2798298,0.09561908,-2.0951152,-0.0091721015,0.027784575,-0.11061883,0.03104296,0.060940623,-0.024455598,-0.0014257808409968017,-0.5209483737469044,90.37145725817086
1729571588707364,-0.28001964,0.095714696,-2.0955205,-0.008892812,0.02828096,-0.11083203,0.034911208,0.0620482,-0.026649794,-0.006563256163639617,-0.5209751620023876,90.37220863846294
1729571588723364,-0.28038052,0.095930636,-2.0963752,-0.008311184,0.02930223,-0.111135595,0.03635173,0.063829355,-0.018972903,-0.015346331622055719,-0.5192837667160013,90.37321948221717
1729571588731364,-0.28055286,0.09604842,-2.0968237,-0.008022068,0.029803965,-0.11125714,0.036139507,0.06271689,-0.015193596,-0.018996678262907202,-0.5175051233282362,90.37358140032342
1729571588739364,-0.28071898,0.09617434,-2.0972855,-0.007709254,0.030296495,-0.11140602,0.03910175,0.06156624,-0.018609688,-0.022100692101685672,-0.5152783378581974,90.37481079112423
1729571588747364,-0.28087893,0.09630822,-2.097761,-0.007408852,0.030785002,-0.1115525,0.037550226,0.061063327,-0.018309802,-0.024599139286320924,-0.5128274819659497,90.37597181074922
1729571588763364,-0.28027144,0.09644227,-2.0979218,-0.006549364,0.031761505,-0.111457035,0.053718016,0.061031427,0.0059665176,-0.02809740471463271,-0.5069516857813164,90.37762449902225
1729571588771364,-0.27997524,0.0965246,-2.0980349,-0.006125622,0.03224572,-0.11137052,0.052967746,0.060527116,0.010814517,-0.029094075337627673,-0.5035755200652335,90.37814342206102
1729571588779364,-0.27968362,0.09661689,-2.0981686,-0.0056983302,0.032722794,-0.11133101,0.053411465,0.059633978,0.004938803,-0.029516586995731807,-0.5000178689235403,90.37845058269214
1729571588787364,-0.27939644,0.09671895,-2.0983229,-0.0052814716,0.033195883,-0.11131326,0.05210732,0.059136186,0.0022184104,-0.02926069630007271,-0.4963842310030431,90.37864848081452
1729571588803364,-0.27883154,0.09695178,-2.0986905,-0.0044233915,0.03413392,-0.11122231,0.053630006,0.058627218,0.005684327,-0.027200722830105054,-0.48831854701125976,90.37862068569773
1729571588811364,-0.2785547,0.097082235,-2.0989025,-0.0039968067,0.034619574,-0.11117476,0.053323105,0.06070686,0.0059437,-0.025506090824955304,-0.48395485955615397,90.37844285008684
1729571588819364,-0.2782814,0.09722197,-2.099133,-0.0035802266,0.03509784,-0.11115464,0.052072514,0.059783455,0.002515502,-0.023198003199097927,-0.4793989623852736,90.37809423518553
1729571588827364,-0.2780115,0.09737068,-2.0993812,-0.0031825001,0.035551798,-0.11113838,0.049715802,0.05674455,0.0020321459,-0.020332490711369233,-0.47472086769693683,90.37763635886989
1729571588843364,-0.27748108,0.0976945,-2.0999298,-0.0023548305,0.03649036,-0.111136645,0.05172935,0.05866005,0.00010849907,-0.012924477720251086,-0.4651724756538445,90.37641998636128
1729571588851364,-0.27722013,0.09786931,-2.1002293,-0.0019526234,0.036937296,-0.11111913,0.05027589,0.055867244,0.0021895394,-0.008745859457865397,-0.4605182435646923,90.3755590816873
1729571588859364,-0.27696183,0.09805239,-2.1005447,-0.001544311,0.037367903,-0.11111487,0.05103905,0.053825784,0.0005327165,-0.0041437347713532535,-0.45578557157822036,90.37461621507423
1729571588867364,-0.27670646,0.09824154,-2.1008759,-0.0011657298,0.037780285,-0.111135624,0.04732264,0.05154777,-0.0025946645,0.0009155672108650333,-0.451023179785562,90.37351623159059
1729571588883364,-0.2770627,0.09779114,-2.1016886,-0.00076232885,0.03817302,-0.111083254,0.02521256,0.024545936,0.003273133,0.012686092036952352,-0.4410955724887927,90.37412365591783
1729571588891364,-0.2772299,0.09759039,-2.1021142,-0.0005686244,0.03837521,-0.11103714,0.024213055,0.025273765,0.005763955,0.019225831175862153,-0.4358463917215912,90.37481333190236
1729571588899364,-0.27739012,0.09740548,-2.1025517,-0.00038161004,0.03857845,-0.1110255,0.023376796,0.025405081,0.0014556571,0.026105401693798665,-0.43059636081493213,90.37532535385155
1729571588907364,-0.27754351,0.09723604,-2.1030016,-0.0001873764,0.03879568,-0.11101675,0.024279203,0.02715364,0.0010933727,0.033374452821427696,-0.4254901716675138,90.37574860447086
1729571588923364,-0.27783084,0.09694221,-2.1039355,0.000144093,0.039228946,-0.11088017,0.020716837,0.027079133,0.008536503,0.04813401728096654,-0.4157536080272489,90.37615107239577
1729571588931364,-0.27796534,0.09681709,-2.1044183,0.00028738007,0.039439514,-0.11080623,0.017910883,0.026321037,0.009242445,0.05545335498094609,-0.4113608548690079,90.37621234256348
1729571588939364,-0.2780958,0.09670707,-2.1049116,0.00042658573,0.039660655,-0.110749714,0.017400706,0.027642583,0.0070640813,0.06262370419692251,-0.4072265105815326,90.37619167252656
1729571588947364,-0.27822068,0.09661077,-2.105415,0.0005563184,0.03988324,-0.110663205,0.016216582,0.02782326,0.0108135855,0.06966981927190825,-0.4033615139894805,90.37622566661955
1729571588963364,-0.2784547,0.096458115,-2.1064515,0.00078652665,0.040319778,-0.11046894,0.014388016,0.027283559,0.0121416515,0.08282243496356514,-0.3967466346962379,90.37578819710683
1729571588971364,-0.27856404,0.09640102,-2.1069834,0.00092627056,0.04053643,-0.11037287,0.017467987,0.027081462,0.012008472,0.08876324492118705,-0.3941015009049739,90.37544655254213
1729571588979364,-0.27866846,0.096356325,-2.1075244,0.0010269367,0.040754225,-0.11028967,0.012583266,0.02722442,0.010400078,0.09430366785632334,-0.39177293860800344,90.37498198691273
1729571588987364,-0.2787683,0.09632375,-2.108074,0.0011280056,0.040968556,-0.110191554,0.012633609,0.026791355,0.012264586,0.09942945158660445,-0.3897730874115967,90.37449695322987
1729571588995364,-0.27886367,0.09630299,-2.108632,0.0012293276,0.041190624,-0.11008247,0.012665259,0.027758533,0.013635493,0.10407968291611985,-0.38813906040314966,90.37399138453877
1729571589011364,-0.27934563,0.09651885,-2.1092584,0.0011320405,0.041659795,-0.10979448,-0.006080445,0.029323155,0.017999206,0.1125861087396764,-0.3855219977685377,90.37436697857035
1729571589019364,-0.27957842,0.0966387,-2.1095936,0.0010927402,0.04189157,-0.10964518,-0.004912537,0.028972046,0.018662773,0.11642321983080177,-0.38436558862619874,90.37556909325792
1729571589027364,-0.2798054,0.096766345,-2.109943,0.0010392881,0.04213652,-0.10948176,-0.0066815116,0.030618625,0.020427627,0.12004469432395798,-0.38328442012619773,90.37673024890425
1729571589043364,-0.28024265,0.09704464,-2.1106818,0.0009344584,0.042613342,-0.109134905,-0.0065518576,0.02980139,0.021678394,0.1261303733098004,-0.3807063132617422,90.37853337481644
1729571589051364,-0.2804534,0.097194955,-2.1110706,0.00086129876,0.04284021,-0.1089204,-0.009144954,0.028358305,0.026812775,0.1284147350964891,-0.3793533991182273,90.37928462794906
1729571589059364,-0.2806591,0.097352624,-2.111472,0.00080966175,0.04308029,-0.10871921,-0.006454625,0.030010005,0.025149433,0.13024303115701397,-0.37797793973526805,90.37992664299217
1729571589067364,-0.2808597,0.097517475,-2.1118846,0.0007731738,0.04330303,-0.1085223,-0.004560992,0.027842818,0.024612991,0.13166390321080157,-0.3766533345616313,90.38041154091151
1729571589075364,-0.28105524,0.097689435,-2.112309,0.00074981205,0.043545227,-0.10835414,-0.00292022,0.030274501,0.02102088,0.13256719703566505,-0.3754239273939394,90.38082135203304
1729571589091364,-0.2814335,0.098051146,-2.1131914,0.0006862143,0.044004545,-0.107982464,-0.003974859,0.028707318,0.023229511,0.13269777396865048,-0.3729538808790374,90.38206433166421
1729571589099364,-0.28161553,0.09824231,-2.1136487,0.00066050567,0.04423902,-0.10782014,-0.0032135793,0.02930965,0.020290723,0.13176042299070728,-0.37136686895526955,90.38279518378845
1729571589107364,-0.281793,0.09844012,-2.1141167,0.000639251,0.044449616,-0.10767569,-0.0026568302,0.026324296,0.018056482,0.1305317889562575,-0.3695465321309497,90.38349179354475
1729571589115364,-0.28196585,0.09864452,-2.1145947,0.0006381911,0.04469203,-0.107541986,-0.00013248791,0.03030151,0.016712584,0.12895234710243056,-0.36751589622966224,90.38409278047901
1729571589131364,-0.28237242,0.09854946,-2.1155126,0.00049399975,0.04498086,-0.10720769,-0.009011961,0.018052058,0.020893289,0.12513029107377982,-0.3632047319110014,90.38613488746277
1729571589139364,-0.28256938,0.09852032,-2.1159866,0.00042239006,0.04511905,-0.10705529,-0.00895121,0.017273705,0.019050203,0.12290672753227161,-0.3608473090930827,90.38761698798325
1729571589147364,-0.28276217,0.098503,-2.11647,0.00037786353,0.04524558,-0.106924824,-0.005565816,0.015816186,0.01630839,0.12041574266256096,-0.35831243189799467,90.38890788939615
1729571589163364,-0.28313553,0.09849712,-2.1174655,0.0002929673,0.04547876,-0.10662624,-0.005306014,0.0145738,0.018661376,0.11499705741484188,-0.3530526846812677,90.39217263695079
1729571589171364,-0.28331608,0.098510824,-2.1179767,0.00026284164,0.0456234,-0.10646205,-0.003765708,0.018079765,0.020524485,0.11194384405772058,-0.3505720519491305,90.39413282154216
1729571589179364,-0.28349254,0.09853541,-2.1184962,0.00023465825,0.04575423,-0.10631761,-0.003522924,0.016354024,0.01805462,0.1085658726860526,-0.3483561479545588,90.39600430697773
1729571589187364,-0.28366497,0.098570585,-2.119024,0.0002265374,0.04589205,-0.106170475,-0.0010151052,0.01722714,0.018391758,0.10498145267782202,-0.3462763705018438,90.39777331584791
1729571589203364,-0.28399715,0.09867165,-2.1201034,0.00027528673,0.04614602,-0.10578139,0.0030468325,0.01587323,0.024317762,0.0972458425416231,-0.34279867412024634,90.40079221653978
1729571589211364,-0.28415695,0.098737076,-2.1206536,0.00029688614,0.046292044,-0.105545476,0.0026999258,0.018252991,0.029489396,0.09312723593019867,-0.3410892287547529,90.40202164212981
1729571589219364,-0.28431463,0.0988134,-2.1212103,0.00033783284,0.046445947,-0.10530206,0.0051183375,0.019237865,0.030427238,0.08908521019336198,-0.3393774357741693,90.4030871680345
1729571589227364,-0.28446802,0.09889931,-2.1217735,0.00039438304,0.04660285,-0.10505889,0.007068774,0.01961272,0.030395573,0.08501229226471753,-0.33742468798387304,90.40385209547256
1729571589235364,-0.28461713,0.09899457,-2.1223428,0.0004570908,0.046754036,-0.10481297,0.007838469,0.018898398,0.030740162,0.08099753214157397,-0.33533255964963987,90.40453503684431
1729571589251364,-0.2846701,0.09928975,-2.1237004,0.000715746,0.047029965,-0.10431381,0.016165951,0.017245533,0.031197442,0.07317276121364107,-0.33088224266699967,90.40538868284978
1729571589259364,-0.28457922,0.09948687,-2.1244826,0.0009022048,0.047174007,-0.10407238,0.023307344,0.01800526,0.030179506,0.06906711791492492,-0.3284371545549646,90.40516316774445
1729571589267364,-0.28448907,0.099690326,-2.125265,0.0010980295,0.047326468,-0.10381928,0.024478097,0.019057654,0.031637028,0.06503891362181698,-0.3258479904072778,90.40478053567524
1729571589283364,-0.28431007,0.1001159,-2.1268287,0.0015539759,0.047653325,-0.103315756,0.028496644,0.020428559,0.03147032,0.05737369618820954,-0.3205925831439353,90.40344161387014
1729571589291364,-0.2842197,0.10033747,-2.1276097,0.001801289,0.04781347,-0.10303263,0.030914145,0.020018311,0.035390258,0.053907719949491235,-0.3181002457554024,90.40269696194466
1729571589299364,-0.2841292,0.100565,-2.12839,0.002056593,0.047966193,-0.10273315,0.031913005,0.01909025,0.037435442,0.0509230673864438,-0.3157141253584362,90.4016996198613
1729571589307364,-0.28403834,0.100798436,-2.1291697,0.0023360846,0.048128024,-0.10244636,0.03493644,0.02022879,0.03584847,0.04821576626957762,-0.31343830404181355,90.40055201552153
1729571589323364,-0.2838549,0.10128276,-2.1307266,0.002883193,0.04844167,-0.10182059,0.03419428,0.019602943,0.03911089,0.04441794413498427,-0.30873530263085236,90.39759426266033
1729571589331364,-0.2837621,0.10153339,-2.1315033,0.0031547747,0.048594493,-0.10147643,0.033947695,0.019102823,0.04301965,0.04334090967423222,-0.30632605209884417,90.39592069323137
1729571589339364,-0.28366852,0.10178954,-2.1322787,0.003431634,0.048742965,-0.1011066,0.03460742,0.01855893,0.046228986,0.04264066188427069,-0.3039619727059984,90.3941173758815
1729571589347364,-0.28357404,0.10205109,-2.1330528,0.0036936572,0.048892647,-0.10072853,0.032752898,0.01871027,0.04725903,0.042310156788386656,-0.3017937308756725,90.3921638432882
1729571589363364,-0.2833799,0.10258342,-2.134596,0.004220064,0.049134497,-0.099960685,0.032900408,0.015115597,0.047990117,0.04286764987579567,-0.29771775970614706,90.38873479502553
1729571589371364,-0.28328142,0.10285716,-2.1353648,0.0044770436,0.04927191,-0.09953935,0.032122478,0.017176848,0.05266722,0.043571694470758184,-0.2956930883977712,90.38742324930554
1729571589379364,-0.28327888,0.103502646,-2.1363308,0.0047213794,0.049530294,-0.09908883,0.030541966,0.0322978,0.05631428,0.04467713761773484,-0.2933558254807974,90.38587269596734
1729571589387364,-0.28327262,0.10414451,-2.1372888,0.0049716453,0.04978701,-0.09862032,0.03128324,0.03208965,0.058564354,0.046053923689257634,-0.2909065304967642,90.38415815130381
1729571589395364,-0.2832626,0.10478298,-2.1382387,0.0052269874,0.050054144,-0.098125935,0.031917762,0.03339164,0.061797906,0.04772874375881087,-0.2882035019760488,90.38227287729396
1729571589411364,-0.2832316,0.10605025,-2.1401134,0.0057177115,0.05053795,-0.0971436,0.030670255,0.030237947,0.06139604,0.05218010899938407,-0.28172338657269114,90.37828365480448
1729571589419364,-0.28321064,0.106679246,-2.141039,0.0059650177,0.050770544,-0.09663687,0.030913273,0.029074026,0.06334111,0.05470990016292681,-0.27807490144227215,90.37610466591148
1729571589427364,-0.28318715,0.107303806,-2.1419563,0.006215933,0.05099104,-0.09610146,0.03136438,0.027562024,0.06692577,0.05742760190064937,-0.27410590180441224,90.3738299894452
1729571589443364,-0.28312972,0.108544655,-2.1437669,0.0067042555,0.051433984,-0.09496887,0.030520167,0.027684027,0.070787035,0.06373527552342284,-0.26595267313497006,90.37083121142821
1729571589451364,-0.2830957,0.109161265,-2.1446598,0.006955884,0.051647726,-0.09440302,0.031453557,0.02671778,0.070731156,0.06727762204816617,-0.2618803697639874,90.36922595696079
1729571589459364,-0.2830582,0.10977544,-2.145545,0.0072043496,0.051852796,-0.093833454,0.031058209,0.02563372,0.071195886,0.07075441439951918,-0.25759905114097603,90.36758648712441
1729571589467364,-0.28301722,0.11038735,-2.1464221,0.00745279,0.05207339,-0.09324593,0.031055067,0.027574131,0.07344037,0.07420952387174494,-0.2529657623353645,90.36587190937904
1729571589483364,-0.2829255,0.11160479,-2.1481524,0.0079004485,0.052465923,-0.09197959,0.027978646,0.024533363,0.07914612,0.08119742241326995,-0.24208394212546722,90.36194415981834
1729571589491364,-0.2828748,0.112210415,-2.1490052,0.008148939,0.05265188,-0.09133073,0.031061353,0.023244413,0.081107944,0.08485946276780282,-0.23593135557277375,90.35994955176712
1729571589499364,-0.28242302,0.11313234,-2.1492126,0.008548749,0.052900575,-0.090592355,0.049976163,0.03108708,0.09229685,0.08869223569768213,-0.22976113583694824,90.35794122099409
1729571589507364,-0.28197703,0.11404437,-2.1494288,0.008918634,0.053135585,-0.08986291,0.046235625,0.02937624,0.0911802,0.09258440161259766,-0.22370609904417801,90.35602864128471
1729571589515364,-0.28153682,0.11494672,-2.1496537,0.009262577,0.053351674,-0.08912518,0.042992875,0.027011147,0.09221676,0.09639161338173709,-0.21777027375578417,90.35403399554863
1729571589531364,-0.28067294,0.116723835,-2.1501276,0.009954678,0.053806785,-0.08772205,0.043256324,0.028444452,0.08769566,0.1040061209068162,-0.20496786412763984,90.34998332257331
1729571589539364,-0.28024876,0.11759915,-2.150376,0.010296821,0.05401268,-0.087046005,0.042767845,0.025736632,0.08450541,0.10794586545914871,-0.19789079725348524,90.3477974187413
1729571589547364,-0.27982953,0.118465856,-2.1506321,0.01062396,0.05420218,-0.08637861,0.040892392,0.023687722,0.08342414,0.11194437049529411,-0.19052184791700782,90.34556374776837
1729571589555364,-0.2794152,0.11932408,-2.1508954,0.010933161,0.05436962,-0.085743286,0.038650118,0.020930076,0.07941573,0.1160475463604618,-0.18297140720472657,90.34325494756183
1729571589571364,-0.27860028,0.1210158,-2.1514432,0.011530217,0.054636363,-0.08458834,0.037316,0.016671373,0.07218402,0.12498860228487385,-0.167617563634008,90.3385963924839
1729571589579364,-0.27819955,0.12184943,-2.1517282,0.011813187,0.054766387,-0.08407773,0.03537128,0.016252976,0.06382633,0.13012482898339547,-0.15973373224901521,90.33619197653532
1729571589587364,-0.2778032,0.12267522,-2.1520202,0.012079802,0.054891024,-0.0836085,0.033326913,0.015579629,0.05865376,0.13573269750623673,-0.1516645943364491,90.33379441254824
1729571589603364,-0.27702296,0.12430374,-2.1526258,0.0126015805,0.055082344,-0.08277236,0.03261113,0.011957482,0.052258834,0.14762413075480907,-0.1348223356842089,90.32880117766986
1729571589611364,-0.27663887,0.1251067,-2.1529388,0.012849668,0.055156775,-0.08236402,0.031010944,0.0093039125,0.05104206,0.15369570112539996,-0.12610405684676138,90.32614407548601
1729571589619364,-0.27625856,0.1259023,-2.1532588,0.0130902305,0.055220243,-0.08195712,0.030070309,0.007933471,0.050863247,0.1599186517841328,-0.11725751451002717,90.3235894264818
1729571589627364,-0.27637076,0.12632461,-2.153277,0.013121777,0.05508352,-0.08145617,0.003943336,-0.017090235,0.062618405,0.16613909987697736,-0.1082720497398179,90.32089815823534
1729571589643364,-0.27656534,0.12717216,-2.1533523,0.013197683,0.054773584,-0.08047145,0.004744099,-0.019371044,0.06154505,0.1790317701224292,-0.08962213695749419,90.31586403805903
1729571589651364,-0.2766521,0.1275962,-2.1534092,0.013225895,0.054603286,-0.08002489,0.003526569,-0.021287238,0.055819746,0.18581695510038385,-0.08038791780013185,90.31326166004814
1729571589659364,-0.27673218,0.1280202,-2.1534786,0.013241967,0.05441895,-0.079604246,0.0020089792,-0.02304185,0.052580606,0.19261056826679526,-0.07146627550895678,90.3105294552798
1729571589667364,-0.276806,0.12844402,-2.15356,0.013225227,0.054230053,-0.07919856,-0.0020925654,-0.023612285,0.05071051,0.19930944865255057,-0.06326412644415019,90.30780413716343
1729571589683364,-0.27693635,0.12929074,-2.153759,0.013168942,0.053832248,-0.078515925,-0.0035177798,-0.024862818,0.042664815,0.21218056031944074,-0.04784820210104431,90.30218271417013
1729571589691364,-0.2769933,0.12971334,-2.153876,0.0131381275,0.053623833,-0.07819081,-0.0038518335,-0.026051885,0.04063919,0.21817990465677453,-0.04060648520112552,90.2994369077697
1729571589699364,-0.27704516,0.13013531,-2.1540046,0.013084246,0.05340686,-0.07788917,-0.006735208,-0.027121508,0.037705526,0.22380615149142735,-0.033634408055742374,90.29658866816443
1729571589707364,-0.2770938,0.13055916,-2.1541443,0.013029292,0.05317321,-0.077628605,-0.006869202,-0.029206274,0.032570213,0.22880677297676066,-0.027180185202654757,90.29374042879097
1729571589723364,-0.27717707,0.13140383,-2.154457,0.0129280845,0.052702375,-0.07716842,-0.0063254843,-0.02942723,0.028761568,0.23766480709390136,-0.01652095384083131,90.28609048988925
1729571589731364,-0.27721223,0.13182452,-2.1546297,0.0128567945,0.05244746,-0.0769694,-0.008911244,-0.03186427,0.024877487,0.24139907750091813,-0.012105723321336541,90.28227234273557
1729571589739364,-0.2772433,0.13224393,-2.154813,0.012802246,0.052200664,-0.076819144,-0.0068185613,-0.030849593,0.018781982,0.24474104223916868,-0.008140838466105919,90.27854986756988
1729571589747364,-0.2772704,0.13266207,-2.1550074,0.012733746,0.0519463,-0.076697335,-0.008562463,-0.031795353,0.015226192,0.24779443411662114,-0.004411755259445618,90.27474541411905
1729571589763364,-0.27862388,0.13302529,-2.1551628,0.012188995,0.051221013,-0.076509975,-0.03404694,-0.045330495,0.011709983,0.2531313200275591,0.002393901263506635,90.26716379539819
1729571589771364,-0.27927196,0.1332122,-2.1552618,0.011938576,0.050872568,-0.076423824,-0.03130245,-0.043555625,0.010768882,0.25550197811313585,0.005595645826641336,90.26327739633875
1729571589779364,-0.2799008,0.13340308,-2.1553738,0.011677666,0.05052302,-0.07633255,-0.03261375,-0.04369346,0.011409632,0.2574653368919967,0.008567258386302597,90.25943876115583
1729571589787364,-0.28051186,0.13359706,-2.1554992,0.011426052,0.050156876,-0.07623011,-0.031451695,-0.04576798,0.012804753,0.2588574315240618,0.01109289429206262,90.25549089061772
1729571589803364,-0.28168273,0.13399349,-2.1557875,0.010930435,0.049407974,-0.07604147,-0.030976078,-0.046806406,0.011790077,0.25984130434531344,0.014824112005896206,90.24769075494767
1729571589811364,-0.28224352,0.13419561,-2.1559498,0.010685348,0.049043063,-0.0759411,-0.030635854,-0.045613848,0.0125458455,0.2594444637396947,0.01606717979960455,90.2437155481226
1729571589819364,-0.28278852,0.1344003,-2.156124,0.010452785,0.04870395,-0.075890124,-0.029070418,-0.042389143,0.0063721086,0.2584731151481079,0.017049499781503406,90.23986328364933
1729571589827364,-0.28331816,0.13460754,-2.1563098,0.010219754,0.04835757,-0.075857006,-0.029128859,-0.04329765,0.004139729,0.25674815890008135,0.017838506729132838,90.23597688271333
1729571589843364,-0.2843328,0.13502903,-2.156716,0.009797211,0.04767627,-0.07582375,-0.026408931,-0.04258123,0.002078712,0.25069771166092836,0.01928750742525424,90.22819722258335
1729571589851364,-0.28481722,0.13524078,-2.1569362,0.009597774,0.04733372,-0.07581878,-0.02492964,-0.042818483,0.0006211921,0.2466990526757775,0.01991238972959641,90.22437910925682
1729571589859364,-0.2852878,0.13545455,-2.1571672,0.009417118,0.046986133,-0.07582748,-0.02258201,-0.043448523,-0.0010877848,0.24221271871374234,0.02032853103663135,90.22131233774095
1729571589867364,-0.28574482,0.13567014,-2.1574087,0.009242204,0.046618715,-0.075817056,-0.021864193,-0.045927238,0.0013029202,0.23721962129626809,0.020624430325020378,90.21818409479589
1729571589883364,-0.28726822,0.13592516,-2.158804,0.008617516,0.045985296,-0.075881906,-0.03904302,-0.039588656,-0.004053116,0.2266149921282807,0.020731692316422745,90.21377174675422
1729571589891364,-0.28800085,0.13605972,-2.1594985,0.008322449,0.04567229,-0.07590698,-0.036883283,-0.039125793,-0.0031339002,0.22115168259288734,0.02072581595211358,90.21243984375772
1729571589899364,-0.2887147,0.13619861,-2.1601913,0.008047555,0.04534653,-0.07593194,-0.034361843,-0.040720213,-0.0031199304,0.2155434725632927,0.020815102005079786,90.21122409103275
1729571589907364,-0.28941035,0.13634172,-2.1608822,0.007770444,0.045031205,-0.07592347,-0.034638852,-0.03941543,0.0010579824,0.20967330322296018,0.02073399350335432,90.21009023709618
1729571589915364,-0.2900882,0.13648893,-2.1615713,0.0075253164,0.044723943,-0.07591799,-0.030640919,-0.038407743,0.00068545336,0.20350915674726483,0.020538966243495216,90.20896327595334
1729571589931364,-0.2913972,0.13679865,-2.162943,0.0070464923,0.044108793,-0.07580592,-0.029926507,-0.03844686,0.0070044766,0.19041112555705797,0.019800198529656435,90.2060877479895
1729571589939364,-0.2920265,0.13695899,-2.1636252,0.006837957,0.043791946,-0.075705506,-0.026066903,-0.039605886,0.012551433,0.18313757455958746,0.019253850065389714,90.20437333263956
1729571589947364,-0.2926394,0.13712284,-2.1643052,0.0066496534,0.043481898,-0.07557367,-0.023537954,-0.038756058,0.016479753,0.17530590135943203,0.018665586650698812,90.20268626248249
1729571589963364,-0.29381743,0.13746081,-2.1656563,0.00631585,0.042885374,-0.075222805,-0.020862702,-0.037282705,0.02192892,0.15867896377765112,0.01730459135021124,90.19949656006747
1729571589971364,-0.2943831,0.13763472,-2.1663277,0.0061936467,0.04259541,-0.075028695,-0.0152754355,-0.036245678,0.024263745,0.14982689926117826,0.016504552047992855,90.19804854506481
1729571589979364,-0.29493344,0.13781177,-2.166996,0.0060990932,0.042301748,-0.07481054,-0.011819181,-0.036707614,0.027269123,0.1407580705055366,0.015622917331766734,90.19664153448515
1729571589987364,-0.29546866,0.13799183,-2.1676612,0.006026429,0.042019155,-0.07456677,-0.009083014,-0.035324134,0.030471941,0.1315138000847433,0.014650649207623469,90.19537793352985
1729571590003364,-0.29678664,0.13800468,-2.1683693,0.00579729,0.041324902,-0.07378732,-0.014321209,-0.04339078,0.048715618,0.11308514312125266,0.012623120168174158,90.19270050311793
1729571590011364,-0.29755935,0.1378449,-2.1684268,0.0056646927,0.040902812,-0.07330268,-0.01657463,-0.052761283,0.060579736,0.1040778681470974,0.011405925736420068,90.19153251296959
1729571590019364,-0.2983119,0.13769549,-2.168495,0.005541632,0.04049167,-0.07281072,-0.015382596,-0.051392704,0.061495226,0.09531203758102251,0.010149517752427879,90.19036454577295
1729571590027364,-0.2990447,0.13755618,-2.1685734,0.0054490725,0.04008489,-0.07231871,-0.011569936,-0.050847415,0.061500814,0.08673815170276457,0.008836764047042428,90.18925803864214
1729571590043364,-0.30045214,0.13730627,-2.1687596,0.005325983,0.039267547,-0.07135962,-0.0076931026,-0.05108397,0.059943177,0.06996700987012004,0.005187725449857894,90.18724314377954
1729571590051364,-0.30112746,0.1371952,-2.168867,0.0053065936,0.03890061,-0.07091491,-0.0024236506,-0.045867167,0.055588778,0.06138314995725863,0.0029232142443278695,90.18610248599201
1729571590059364,-0.30178422,0.13709305,-2.168984,0.0052988995,0.038513526,-0.070518464,-0.0009617651,-0.048385464,0.04955567,0.052724858671120804,0.0005043751191629076,90.18509161226731
1729571590067364,-0.30241996,0.13700344,-2.1691098,0.0053170016,0.038163748,-0.07014015,0.0022627646,-0.04372233,0.04728883,0.04398119336029258,-0.0019701677329730985,90.18409439885525
1729571590075364,-0.30303782,0.13692226,-2.169245,0.0053575067,0.037810545,-0.06979249,0.0050631347,-0.044150274,0.0434583,0.035344303130821784,-0.004554222066993366,90.18239366868706
1729571590091364,-0.30422094,0.13678424,-2.1695423,0.0054812194,0.037154216,-0.06917645,0.0077320435,-0.041020565,0.038502272,0.018863428795536416,-0.0100396894427876,90.17929274611114
1729571590099364,-0.30478665,0.13672699,-2.1697037,0.005592408,0.03682588,-0.06887232,0.0138985915,-0.041041985,0.038016587,0.011053912973917564,-0.013049676831728708,90.17776960016928
1729571590107364,-0.30533552,0.13667722,-2.1698735,0.0057024257,0.036502942,-0.068573445,0.0137522,-0.040367242,0.037359074,0.0037585719435942974,-0.01629044661958051,90.17619181309205
1729571590115364,-0.30586785,0.13663474,-2.1700516,0.005824022,0.036200035,-0.068313174,0.015199533,-0.037863385,0.03253389,-0.003285883973273027,-0.019610587397801818,90.17468233809802
1729571590131364,-0.3070346,0.13720468,-2.170386,0.0060874224,0.03585458,-0.06776722,0.016462523,-0.02159085,0.034122262,-0.016702445395703477,-0.02582105411863857,90.17205956784598
1729571590139364,-0.3075907,0.13748932,-2.1705647,0.006243477,0.03568122,-0.06755138,0.019506842,-0.021670012,0.026979482,-0.023214559938234715,-0.02891694110018157,90.17072083625197
1729571590147364,-0.30812955,0.13777328,-2.1707509,0.006420777,0.035505965,-0.06734581,0.022162508,-0.021907033,0.02569612,-0.029511225876518513,-0.03172779112117883,90.1693274736097
1729571590163364,-0.30915663,0.13833892,-2.1711462,0.0067887437,0.035150114,-0.0669894,0.022997905,-0.02224068,0.022275837,-0.042073444178567454,-0.03711100168678338,90.166588569279
1729571590171364,-0.3096454,0.13862088,-2.1713548,0.0070033334,0.034997452,-0.06681682,0.026823718,-0.0190828,0.021572223,-0.04830444584384957,-0.03968612031957868,90.16544111200037
1729571590179364,-0.310118,0.13890234,-2.1715703,0.007228558,0.03483392,-0.066649616,0.028153066,-0.020441597,0.02090074,-0.05441549601252862,-0.04203454539285705,90.1641365411229
1729571590187364,-0.31057453,0.13918328,-2.1717927,0.0074668187,0.034666736,-0.06646321,0.029782588,-0.020897945,0.023300758,-0.06044685532372,-0.04420878398559595,90.16294125284325
1729571590195364,-0.31101546,0.13946368,-2.1720216,0.0076982053,0.034491643,-0.066291645,0.028923327,-0.021886544,0.021445563,-0.0665187162344433,-0.04615033923205057,90.16169133289252
1729571590211364,-0.31185004,0.14002675,-2.1724987,0.00820917,0.034173865,-0.06594375,0.031935282,-0.01986115,0.021743586,-0.07848041482734168,-0.04959032785609217,90.15892508764462
1729571590219364,-0.31224474,0.14030762,-2.1727464,0.008481345,0.034026656,-0.065786496,0.03402191,-0.018401071,0.019656492,-0.08416857939883123,-0.05072432645583414,90.15723120665795
1729571590227364,-0.31262463,0.14058818,-2.1730003,0.008771499,0.03387948,-0.06562134,0.03626919,-0.01839688,0.020644626,-0.08947002654326493,-0.051328178116933354,90.15559876907538
1729571590243364,-0.31334084,0.14114854,-2.1735256,0.009388761,0.03360603,-0.065341815,0.03857887,-0.0170907,0.017470215,-0.09902134474287283,-0.05133087284108571,90.15255935401218
1729571590251364,-0.3133507,0.1422362,-2.1738477,0.009865894,0.033845678,-0.06521622,0.059641663,0.029955989,0.015699305,-0.10336628592404683,-0.05118741213067726,90.15109084977614
1729571590259364,-0.31335363,0.14330639,-2.1741738,0.01035505,0.034076374,-0.065089524,0.061144467,0.028837005,0.01583714,-0.10752400398857584,-0.05144852022881812,90.1504351267155
1729571590267364,-0.31334955,0.14435966,-2.174504,0.010837651,0.03430393,-0.06494119,0.060325135,0.028444452,0.018541701,-0.11153258520410868,-0.05164675921258956,90.1498819010154
1729571590283364,-0.3133238,0.14641817,-2.175175,0.011851885,0.034720145,-0.064674534,0.06338965,0.026013467,0.016666017,-0.11790787010145569,-0.051087213749253575,90.14846802949981
1729571590291364,-0.31330025,0.14742391,-2.175516,0.012352586,0.03492714,-0.0645211,0.06258755,0.025874468,0.019179657,-0.1203667942616948,-0.050054514090885606,90.14779866419221
1729571590299364,-0.31326973,0.14841451,-2.17586,0.012856221,0.03509402,-0.06438725,0.06295437,0.020859761,0.01673121,-0.122039581034362,-0.04830397064624382,90.14706099724233
1729571590307364,-0.31323218,0.1493903,-2.1762075,0.013359213,0.035270903,-0.06425073,0.06287405,0.022110527,0.017064624,-0.12307149787292843,-0.04594464641794122,90.1463779716774
1729571590323364,-0.31313622,0.15129912,-2.1769125,0.014378101,0.035573576,-0.06398652,0.063680455,0.018917024,0.01651328,-0.12302606720435823,-0.038889042392131506,90.14508705251731
1729571590331364,-0.31307778,0.15223284,-2.1772695,0.014883802,0.03571504,-0.06385056,0.0632127,0.017683022,0.016994774,-0.12197563304388453,-0.03405294397840678,90.14454063043515
1729571590339364,-0.31301242,0.15315327,-2.1776297,0.015393049,0.03583827,-0.06372395,0.0636559,0.015403609,0.015825965,-0.12017354631793699,-0.028375531813921995,90.1439600661324
1729571590347364,-0.31294322,0.15405993,-2.1779928,0.015891807,0.03594256,-0.063562274,0.062344708,0.013036187,0.020209698,-0.1177179240708853,-0.02204733758668358,90.1435092493449
1729571590363364,-0.31278405,0.15583499,-2.1787271,0.016920704,0.036085635,-0.063270204,0.06430607,0.0089423265,0.018254388,-0.11141347748968926,-0.007685607020592293,90.14227297200232
1729571590371364,-0.31269413,0.15670395,-2.1790984,0.017431611,0.036132015,-0.0631143,0.063863344,0.0057974826,0.019487925,-0.10770244393725711,0.00022760071284606744,90.14188366091024
1729571590379364,-0.31280637,0.15761748,-2.1792057,0.017766502,0.03617593,-0.062878825,0.041861318,0.005489215,0.029434448,-0.10363908256323077,0.008479099586245075,90.14152164512734
1729571590387364,-0.31290844,0.1585176,-2.1793218,0.018105647,0.03619429,-0.06266106,0.042393103,0.0022952445,0.027220694,-0.09914601346361739,0.017071524474510432,90.14185634023801
1729571590403364,-0.3130826,0.16027856,-2.1795797,0.018781494,0.036177654,-0.062250637,0.04224048,-0.0010398217,0.025651416,-0.0894573720435137,0.03451077350805537,90.14256670318777
1729571590411364,-0.31315506,0.16113979,-2.179721,0.019135755,0.0361482,-0.062066786,0.044282522,-0.003681518,0.022981314,-0.08430702732872024,0.04333304542271789,90.14290822866194
1729571590419364,-0.31321904,0.16198668,-2.1798708,0.019464971,0.03608181,-0.061882462,0.041152116,-0.008299015,0.023040453,-0.07911167806631908,0.05225226840460713,90.14322927223422
1729571590427364,-0.31327385,0.1628209,-2.1800284,0.019786583,0.035992064,-0.06169544,0.040201467,-0.011218245,0.023377592,-0.07365413235758289,0.0613263726167408,90.14387816414138
1729571590443364,-0.31335658,0.16445188,-2.1803663,0.020456024,0.0357853,-0.061332695,0.041840013,-0.012922798,0.02267165,-0.06273176448921612,0.08012818359386747,90.14546283314401
1729571590451364,-0.31338492,0.16524899,-2.1805465,0.02077236,0.03565295,-0.061174795,0.03954209,-0.016543549,0.019737517,-0.05740814015988794,0.08958541797569651,90.14621418707993
1729571590459364,-0.31340486,0.16603377,-2.1807337,0.021085555,0.035470903,-0.061023086,0.039149307,-0.022755934,0.01896359,-0.05229788987588256,0.09896973708392301,90.14695872866669
1729571590467364,-0.31341666,0.16680636,-2.180928,0.021395482,0.035297543,-0.06087881,0.03874092,-0.021670012,0.018034596,-0.047337904126780524,0.10820536189492058,90.14791500627685
1729571590483364,-0.31341776,0.16831116,-2.1813374,0.022000186,0.034896206,-0.060640294,0.037794,-0.025083542,0.014907214,-0.0380964949198969,0.12606426289436568,90.1497319318232
1729571590491364,-0.31340748,0.16904372,-2.1815522,0.02229481,0.03467972,-0.0605352,0.036827985,-0.027060973,0.01313677,-0.03389932108346886,0.13470444789387023,90.15154882331883
1729571590499364,-0.31339222,0.1697271,-2.1817415,0.022620825,0.03437818,-0.060441796,0.04075188,-0.037692487,0.0116755245,-0.030002775430898826,0.1432220123332574,90.1533110745423
1729571590507364,-0.31336913,0.17039889,-2.1819382,0.022925677,0.03405278,-0.060319114,0.03810646,-0.04067458,0.015335157,-0.026441417394479857,0.15161742317728447,90.15411027051077
1729571590523364,-0.31330007,0.17170773,-2.1823528,0.023554923,0.03334818,-0.060101777,0.039327886,-0.044037584,0.013583572,-0.019984626017418138,0.16787455060291753,90.1558794283696
1729571590531364,-0.31325445,0.17234495,-2.1825705,0.02385992,0.032982785,-0.059984334,0.03812462,-0.045674384,0.014680437,-0.017079668299082557,0.17547054213467617,90.15676741879966
1729571590539364,-0.31320155,0.17297097,-2.1827946,0.024168927,0.032624736,-0.05988555,0.038625903,-0.0447561,0.012347939,-0.014187122391294481,0.18271944931460765,90.15767590988554
1729571590547364,-0.3131415,0.17358589,-2.1830254,0.024480278,0.032254133,-0.05977311,0.038918804,-0.046325378,0.014055054,-0.011243506709963668,0.18948673506074734,90.15858439230615
1729571590563364,-0.31300363,0.17478824,-2.1835055,0.025075637,0.0314816,-0.059546456,0.037209943,-0.048283253,0.014165881,-0.00558139970028063,0.20154715846827886,90.1594860927337
1729571590571364,-0.31292456,0.17537312,-2.183755,0.025362642,0.031089557,-0.059445817,0.035875708,-0.049005494,0.012579839,-0.0029117807586236354,0.20718794343212296,90.1596432540386
1729571590579364,-0.3128389,0.17594725,-2.18401,0.025637453,0.030679652,-0.059337,0.034351368,-0.051238105,0.013601965,-0.00033268051771345345,0.21235080063539255,90.15969794328825
1729571590587364,-0.31274667,0.1765107,-2.1842706,0.025947118,0.030271024,-0.05922668,0.038708095,-0.051078618,0.013790092,0.0022241296061159235,0.21699605556882376,90.1597799534141
1729571590595364,-0.31264785,0.17706358,-2.1845367,0.026250249,0.029836746,-0.0591088,0.037891325,-0.054284696,0.014734919,0.004804500236990692,0.22133117633437857,90.15986880333008
1729571590611364,-0.31243092,0.1781374,-2.1850848,0.026833048,0.028900059,-0.058869477,0.036424957,-0.058542933,0.014957738,0.00986098418386667,0.22913440759433804,90.16008062581608
1729571590619364,-0.31231308,0.17865844,-2.1853662,0.027130486,0.028433377,-0.05871816,0.037179794,-0.05833525,0.018914696,0.012622927623617315,0.23282097879484476,90.1602650894329
1729571590627364,-0.31264022,0.17877921,-2.1857479,0.027300494,0.027765676,-0.058566622,0.021250917,-0.083462566,0.01894217,0.01568959812940122,0.236243465850917,90.16044952446555
1729571590643364,-0.31324366,0.17901413,-2.186516,0.027651807,0.026408894,-0.05829843,0.021957092,-0.084798895,0.016761944,0.022314434396969552,0.24229311853751775,90.15850980808813
1729571590651364,-0.31352085,0.17912802,-2.186903,0.027820142,0.0257412,-0.058171634,0.021041835,-0.083461635,0.015849713,0.025692238998339535,0.24464728721970766,90.15742381186065
1729571590659364,-0.31378227,0.17923945,-2.1872916,0.027975313,0.025078893,-0.05803723,0.019396422,-0.08278852,0.016800594,0.02894259467934864,0.24649673800743685,90.15629686198373
1729571590667364,-0.31402844,0.17934833,-2.1876814,0.028123444,0.024416065,-0.057869714,0.018516323,-0.08285348,0.02093939,0.0322668449902393,0.2479183910826668,90.1551288838393
1729571590683364,-0.31447625,0.1795579,-2.1884644,0.028460998,0.02307218,-0.057503816,0.021097133,-0.08399284,0.022868624,0.03840730150109924,0.2497111458811858,90.15284760584917
1729571590691364,-0.3146786,0.17965838,-2.1888576,0.028636774,0.022410523,-0.05732013,0.021971993,-0.082707025,0.022960825,0.04097039612142679,0.249918374723134,90.15166596700264
1729571590699364,-0.3148644,0.17975244,-2.1892517,0.02881444,0.021757295,-0.0571197,0.022208316,-0.08165347,0.025053507,0.043254975424194625,0.24981223897748694,90.15050481885915
1729571590707364,-0.31503665,0.17984365,-2.1896465,0.028982325,0.021109167,-0.05690661,0.02098549,-0.08101598,0.02663629,0.04509855645588478,0.2492419661345728,90.15038870494199
1729571590715364,-0.31519574,0.17993185,-2.190042,0.02915216,0.020450806,-0.056696817,0.021229496,-0.08229515,0.02622418,0.04658782866696802,0.24830333988468478,90.15017695884444
1729571590731364,-0.3154756,0.18009892,-2.1908336,0.029478667,0.019162389,-0.056149036,0.020406673,-0.080526106,0.03423635,0.04849852263180222,0.24541046111657835,90.14967145935093
1729571590739364,-0.31559724,0.18017787,-2.1912293,0.029634887,0.018535223,-0.055881057,0.019527506,-0.0783957,0.033497345,0.04900462892953282,0.24350946342926932,90.1495416761114
1729571590747364,-0.3157069,0.18025367,-2.1916249,0.029824523,0.01790329,-0.055587344,0.023704486,-0.07899152,0.036714133,0.04917677041235173,0.24145697320259493,90.14948018624574
1729571590755364,-0.31537762,0.18051356,-2.1915035,0.0301584,0.017416151,-0.05519828,0.04173466,-0.06089243,0.048633195,0.0490787235756731,0.23908204752127454,90.14946649015678
1729571590771364,-0.31471992,0.18100877,-2.1913,0.030793807,0.016463093,-0.05445244,0.039712872,-0.059566107,0.04661479,0.048008749487657175,0.23326561177945046,90.15096909454473
1729571590779364,-0.31438866,0.18124695,-2.191217,0.031133847,0.015977591,-0.054113783,0.042505093,-0.06068777,0.042332333,0.04742890787292593,0.23019864499424772,90.15172721297999
1729571590787364,-0.31405556,0.18147902,-2.191146,0.031487107,0.015512212,-0.05379861,0.044157494,-0.058172386,0.039396804,0.0469581569363092,0.22688421597105954,90.1525741420192
1729571590803364,-0.31338343,0.1819253,-2.19104,0.03217648,0.014575872,-0.05327369,0.043085773,-0.058521282,0.032807466,0.047116590708987216,0.2200507198098193,90.1542816413311
1729571590811364,-0.31304446,0.1821397,-2.191005,0.032496568,0.014094686,-0.0530658,0.04001101,-0.060148183,0.025986226,0.04779181512423488,0.2167007011327338,90.15523099490562
1729571590819364,-0.3127037,0.18234834,-2.1909816,0.03280378,0.013629957,-0.052856915,0.03840169,-0.058091126,0.026110558,0.04900002434553286,0.21368619188871055,90.1562213477101
1729571590827364,-0.31236097,0.18255141,-2.1909697,0.033129655,0.013163789,-0.052672375,0.040734183,-0.058270987,0.023067461,0.05066779969751312,0.2111228256231546,90.15727320006692
1729571590843364,-0.31166095,0.18294667,-2.1909792,0.03378891,0.01221739,-0.052391205,0.04120334,-0.059149925,0.017573126,0.054852180918868815,0.20677703550319512,90.15962277293194
1729571590851364,-0.31130776,0.1831362,-2.1910005,0.03412366,0.011770374,-0.052263226,0.041843854,-0.055877022,0.015997328,0.057111089416071945,0.20482393564686305,90.16079755895355
1729571590859364,-0.31095245,0.18332049,-2.1910324,0.03444334,0.011318148,-0.052171778,0.039960254,-0.05652825,0.011431052,0.05972783385214499,0.20283591113143,90.16205427818207
1729571590867364,-0.310595,0.1834996,-2.1910746,0.034763344,0.010859528,-0.0520536,0.0400003,-0.057327557,0.014772172,0.06268349112735694,0.20087930325539186,90.16330421512279
1729571590883364,-0.30933562,0.18419144,-2.1897066,0.03547577,0.010004056,-0.051600747,0.04452653,-0.053466994,0.028303357,0.06992714425742196,0.19623042447468383,90.16513467006867
1729571590891364,-0.30871332,0.18452287,-2.1890657,0.035821173,0.009572584,-0.05137975,0.043175645,-0.053933937,0.027624423,0.07399540510853098,0.19371216450393,90.16576301884665
1729571590899364,-0.30809578,0.18484491,-2.1884525,0.036144786,0.009150928,-0.051227234,0.040451527,-0.052707035,0.019064639,0.07842746736845002,0.19133148329289126,90.16639138719552
1729571590907364,-0.3074908,0.18515939,-2.187867,0.036457703,0.0087428605,-0.05111719,0.039114617,-0.05100842,0.0137556335,0.0830926143311894,0.1890425568979093,90.16698559449084
1729571590923364,-0.30629426,0.18576176,-2.186776,0.037015766,0.007939511,-0.05098708,0.03487896,-0.050209343,0.008131843,0.09323633976783155,0.1850143379914337,90.16541459982723
1729571590931364,-0.3057025,0.18605012,-2.1862693,0.037303172,0.0075478726,-0.050981853,0.03592577,-0.048954796,0.0006533227,0.09865200640646417,0.18295888068064126,90.16464275823695
1729571590939364,-0.30511484,0.18633012,-2.1857882,0.037589133,0.007150614,-0.051033415,0.03574509,-0.049657304,-0.0064452174,0.10438745012380106,0.1808237687953,90.16382310550226
1729571590947364,-0.30453107,0.18660182,-2.1853328,0.03786441,0.00674536,-0.05116817,0.034409575,-0.050656784,-0.016844366,0.11041116853812936,0.17872132750215475,90.16299662279992
1729571590963364,-0.30337512,0.187121,-2.1844969,0.038375527,0.0059580375,-0.051495776,0.03194483,-0.049207646,-0.020475358,0.12273706585203892,0.17466833800792528,90.16135051712305
1729571590971364,-0.3028028,0.18736881,-2.184116,0.038615886,0.005575811,-0.05170439,0.03004493,-0.0477783,-0.02607703,0.1290614437397299,0.17286198478906153,90.16064697842906
1729571590979364,-0.30223837,0.18760572,-2.1837585,0.038847785,0.005171909,-0.051925335,0.028987413,-0.05048775,-0.027617903,0.13563900507580626,0.1710954791365323,90.15988198726839
1729571590987364,-0.30167753,0.18783502,-2.1834245,0.039051946,0.0047724126,-0.05216785,0.0255201,-0.049937047,-0.030314548,0.1425201754892809,0.169668937128025,90.15892573178837
1729571591003364,-0.30028298,0.1881838,-2.1826096,0.039525326,0.003908672,-0.052778315,0.029586254,-0.05398379,-0.038153958,0.15717090040729662,0.16799142471297426,90.15700643818971
1729571591011364,-0.299456,0.18830486,-2.1821342,0.0397722,0.0034520715,-0.053124856,0.030859372,-0.057075053,-0.043317672,0.16461210472232274,0.16763738727569644,90.15506661691431
1729571591019364,-0.2986391,0.18842016,-2.1816869,0.04001438,0.0029904344,-0.053492878,0.030272173,-0.057704628,-0.046002675,0.1721005731699306,0.16724195498680144,90.15314732352796
1729571591027364,-0.29783192,0.18852977,-2.1812668,0.040259145,0.002534386,-0.053863917,0.030595807,-0.05700605,-0.04637986,0.17964829564692666,0.1667473778210839,90.15124850257871
1729571591043364,-0.2962431,0.18873097,-2.1805062,0.040699326,0.0016202226,-0.05465784,0.027511267,-0.05713521,-0.049620166,0.19443412974199292,0.16559852716674353,90.14744405789685
1729571591051364,-0.29546106,0.18882264,-2.180165,0.04091061,0.0011525825,-0.055094473,0.026410444,-0.058455013,-0.054579224,0.20178881883564048,0.1651282426713216,90.14607800151532
1729571591059364,-0.2946878,0.18890877,-2.1798496,0.041123576,0.0006965792,-0.055543788,0.026620923,-0.057000402,-0.056164335,0.20937106419353874,0.16447350229795027,90.14469829352922
1729571591067364,-0.29392326,0.18898945,-2.1795592,0.04129565,0.00024124754,-0.056019925,0.021509359,-0.05691646,-0.059517097,0.21729280217214167,0.16374895232504122,90.1434415376041
1729571591075364,-0.2931674,0.18906473,-2.1792936,0.041454647,-0.00020502944,-0.056496773,0.019874422,-0.05578462,-0.059606038,0.2256178526652548,0.16283130201119464,90.14216426553081
1729571591091364,-0.29168066,0.18919934,-2.1788337,0.041764144,-0.0011041004,-0.057434615,0.01934357,-0.056191932,-0.05861511,0.24289060396089537,0.16060122302398638,90.13980782296215
1729571591099364,-0.2909494,0.18925871,-2.1786387,0.04190732,-0.0015598475,-0.057880737,0.017897226,-0.056968387,-0.055765264,0.2517149612787607,0.15917880391033568,90.13859887006727
1729571591107364,-0.29022613,0.18931288,-2.1784656,0.042008918,-0.0019953568,-0.05832005,0.012699514,-0.054438654,-0.054914035,0.26048939842357544,0.15760696060062496,90.13747868515628
1729571591115364,-0.28951165,0.18936914,-2.1783144,0.04210953,-0.002405697,-0.058758713,0.012576579,-0.05129253,-0.05483301,0.2690744308543876,0.15575731978107235,90.13652927992749
1729571591131364,-0.2889276,0.18879935,-2.1775029,0.04214173,-0.0034067128,-0.05953284,0.002012588,-0.06256349,-0.048382904,0.28584927619103234,0.15140207136230133,90.13308680575021
1729571591139364,-0.2886306,0.18851922,-2.177139,0.042150598,-0.0039145686,-0.05994236,0.0011082739,-0.06348197,-0.05119014,0.29395133796607026,0.1488993320458317,90.13185052488488
1729571591147364,-0.28833038,0.18824206,-2.1768024,0.042150002,-0.004395117,-0.060351975,-7.4505806e-05,-0.060068555,-0.051201783,0.3019667852227434,0.14618149471435662,90.13061422862107
1729571591163364,-0.28772128,0.18769632,-2.176208,0.042116534,-0.0053561376,-0.061165832,-0.0020917505,-0.060063783,-0.05086604,0.3175190500323807,0.14013010164117193,90.12842169828293
1729571591171364,-0.28741276,0.18742739,-2.175949,0.042090386,-0.005815895,-0.061580773,-0.0032684763,-0.057469644,-0.05186768,0.3250044728650353,0.13679686621092252,90.1272468824681
1729571591179364,-0.28710192,0.18716088,-2.1757147,0.042035516,-0.0062911417,-0.06199503,-0.0068587246,-0.059405863,-0.051781997,0.3323072952638345,0.13322893623681853,90.12619502544219
1729571591187364,-0.28678676,0.18689938,-2.1755047,0.041976567,-0.0067369994,-0.062403396,-0.0073686237,-0.0557322,-0.051045787,0.33947282659837114,0.12951733231545798,90.12530705570943
1729571591195364,-0.2864697,0.1866401,-2.175318,0.041903462,-0.0071904995,-0.06279336,-0.009138137,-0.056687508,-0.04874542,0.3463899314803845,0.12545757521598122,90.12447376514757
1729571591211364,-0.28583056,0.18612763,-2.1750133,0.041755892,-0.008061914,-0.063623115,-0.00922312,-0.054463394,-0.051859763,0.3595952727082869,0.11657865632614106,90.12282763812735
1729571591219364,-0.28550872,0.18587434,-2.1748943,0.04166715,-0.008493759,-0.06404538,-0.011092982,-0.05398062,-0.052782703,0.36586221278119646,0.11176443061892893,90.12200114905512
1729571591227364,-0.28518555,0.18562283,-2.1747968,0.04157456,-0.008914228,-0.06448628,-0.011573545,-0.052558605,-0.055112872,0.371812598197832,0.10664463424586657,90.12114053838555
1729571591235364,-0.28486127,0.18537311,-2.1747208,0.041463587,-0.009306476,-0.0649389,-0.013871583,-0.049031105,-0.056577843,0.37766108661002745,0.10127136093594967,90.12053260871976
1729571591251364,-0.2846084,0.1852693,-2.174639,0.0411212,-0.009909219,-0.06574784,-0.02139923,-0.037671413,-0.050558705,0.3886974725422227,0.09016883290846835,90.1195558567743
1729571591259364,-0.28467497,0.18541144,-2.174631,0.040859897,-0.010104254,-0.06610601,-0.03266288,-0.024379347,-0.044770535,0.39440017711951725,0.08417193321419558,90.12104482198949
1729571591267364,-0.28473163,0.18554711,-2.1746414,0.040596694,-0.010283519,-0.066429175,-0.032900367,-0.022408085,-0.040396113,0.39995438306523023,0.07823810702889102,90.12107897289279
1729571591283364,-0.28481647,0.18579994,-2.174714,0.04009769,-0.010634463,-0.06707212,-0.031187663,-0.021934042,-0.040184237,0.4107746669429563,0.06697056701020937,90.12150923081195
1729571591291364,-0.28484517,0.18591744,-2.1747756,0.039859634,-0.010796302,-0.06740293,-0.029757151,-0.020229839,-0.04135072,0.41591359518860826,0.06172571212980477,90.1217414568617
1729571591299364,-0.28486514,0.18602923,-2.1748533,0.03960983,-0.0109728845,-0.06772311,-0.031225381,-0.022072809,-0.040022653,0.4208383908278277,0.05688431937277876,90.12211709480334
1729571591307364,-0.2848768,0.18613547,-2.1749473,0.03935604,-0.011134817,-0.068040766,-0.03172364,-0.020241596,-0.039706934,0.42560983061030055,0.05236878854556348,90.12255422608986
1729571591315364,-0.28488046,0.18623632,-2.1750565,0.039096966,-0.011307361,-0.06833488,-0.032384414,-0.021567916,-0.03676396,0.43001474515800336,0.04819811601678583,90.12303917592784
1729571591331364,-0.28486377,0.18642236,-2.1753197,0.038582306,-0.01163573,-0.06887858,-0.03216625,-0.020523088,-0.033981632,0.43752465948933134,0.04116404622483131,90.12439152854327
1729571591339364,-0.28484458,0.1865079,-2.1754725,0.038326066,-0.0117946435,-0.06914678,-0.032030046,-0.019864177,-0.03352482,0.44039085110924103,0.038294312206382346,90.1252043118188
1729571591347364,-0.28481853,0.18658875,-2.1756394,0.038072553,-0.0119333835,-0.069383375,-0.031689182,-0.017342506,-0.029574146,0.4425669207523038,0.035805721589620594,90.12603759297794
1729571591363364,-0.28474754,0.18673694,-2.1760118,0.03750735,-0.012224769,-0.0698019,-0.035325065,-0.018211605,-0.02615759,0.44483404815180727,0.03178281950917409,90.12800470560424
1729571591371364,-0.284703,0.18680444,-2.176217,0.03724551,-0.012375244,-0.07000561,-0.0327304,-0.018809339,-0.02546422,0.4449974074988096,0.03004356227662481,90.12909071082298
1729571591379364,-0.284578,0.18732779,-2.1759608,0.037080433,-0.012345759,-0.07009937,-0.020634381,0.0036855924,-0.011719762,0.44455196463678415,0.02851476030143195,90.13016304797398
1729571591387364,-0.284448,0.18783653,-2.175728,0.0369065,-0.01233368,-0.070181444,-0.021741724,0.0015099066,-0.010259449,0.44343374202753966,0.026996617178088177,90.13317515374872
1729571591403364,-0.28418067,0.18881512,-2.1753323,0.0365633,-0.012324937,-0.070325196,-0.021449987,0.0005464535,-0.008984469,0.4399713950932022,0.024817613187199276,90.13875544352429
1729571591411364,-0.28404015,0.18928394,-2.1751676,0.036401365,-0.012310863,-0.070388936,-0.020241829,0.0017592682,-0.007967465,0.4376418910789177,0.02420451027159263,90.14133042570906
1729571591419364,-0.2838952,0.1897396,-2.175024,0.036236342,-0.012310993,-0.07045588,-0.020627862,-1.6298145e-05,-0.008367933,0.4351718393004902,0.024190809871391123,90.14379612494679
1729571591427364,-0.28374597,0.19018236,-2.1749012,0.036070626,-0.012325145,-0.07054676,-0.020714475,-0.0017690471,-0.011360272,0.4326301518728515,0.024722017210312273,90.14640527489732
1729571591443364,-0.28343484,0.19103025,-2.1747172,0.03578603,-0.0123607125,-0.07081793,-0.01778733,-0.0022229506,-0.016948208,0.4279272287997358,0.027026619320960083,90.15156890732987
1729571591451364,-0.2832732,0.19143592,-2.174655,0.035638124,-0.012402683,-0.07098228,-0.01848815,-0.005246256,-0.020543111,0.42610084893788003,0.028441028933842816,90.15419171809248
1729571591459364,-0.28310767,0.19182962,-2.1746123,0.035501435,-0.012449662,-0.071161605,-0.017086044,-0.005872454,-0.022416001,0.42436408618611127,0.029822608294864474,90.15686915176222
1729571591467364,-0.282938,0.1922162,-2.1745887,0.035347357,-0.012493955,-0.07135386,-0.01925975,-0.005536596,-0.024031846,0.4226496529060889,0.03145203553173979,90.15956709457467
1729571591483364,-0.28258803,0.19295521,-2.1745968,0.035058856,-0.012611847,-0.07171579,-0.018031336,-0.0073682745,-0.022620426,0.41919608219246934,0.03555344476845131,90.1636789006904
1729571591491364,-0.2824077,0.19330816,-2.1746275,0.034950823,-0.012673498,-0.07189187,-0.013504176,-0.0077063446,-0.022009945,0.4172881138639115,0.03798561960401614,90.16568698796617
1729571591499364,-0.28276247,0.19375756,-2.1750157,0.034529306,-0.012673965,-0.0721278,-0.05268957,-5.8324073e-05,-0.029491259,0.41555826109927385,0.040532800514918435,90.16768140499669
1729571591507364,-0.28310284,0.19419438,-2.1754115,0.03412501,-0.012685121,-0.07236091,-0.05053682,-0.001394539,-0.029139219,0.41439676083571936,0.042904157446157574,90.16905429744939
1729571591515364,-0.28342927,0.19461885,-2.1758149,0.033722136,-0.012699268,-0.07257279,-0.0503594,-0.0017683486,-0.02648495,0.4133178362183331,0.04536310631831049,90.17035204827052
1729571591531364,-0.28404176,0.19543158,-2.1766427,0.032978114,-0.012799834,-0.07286535,-0.046501398,-0.006285379,-0.018285122,0.4119350292578182,0.05018037905079287,90.17305682257134
1729571591539364,-0.28432617,0.1958163,-2.177066,0.032627355,-0.012870381,-0.07298029,-0.0438448,-0.008818344,-0.014367512,0.41145511393909784,0.05282927955984298,90.17436138308764
1729571591547364,-0.28459814,0.1961894,-2.1774955,0.032270003,-0.012937509,-0.07306375,-0.04466902,-0.0083911,-0.010432675,0.41102871814773095,0.05586245854529574,90.17639682290817
1729571591563364,-0.2851064,0.19690152,-2.1783707,0.031599212,-0.013153284,-0.073159255,-0.041924413,-0.013485899,-0.005968846,0.4099280981413132,0.06289870443197353,90.17996906018091
1729571591571364,-0.28534335,0.19724064,-2.178816,0.03126454,-0.013279302,-0.073186345,-0.041834075,-0.015752273,-0.0033862886,0.40897712695003086,0.0665978011789015,90.18184055624609
1729571591579364,-0.2855694,0.19756871,-2.1792662,0.030949961,-0.013413208,-0.07318517,-0.039322298,-0.016738195,0.00014714897,0.40759127775933596,0.07038499703793492,90.18357543846449
1729571591587364,-0.28578487,0.19788592,-2.179721,0.030623833,-0.013541458,-0.07318445,-0.040766083,-0.016031321,8.940696e-05,0.4057622772987169,0.07442655126386884,90.1853923047612
1729571591595364,-0.28599015,0.19819248,-2.1801805,0.030312445,-0.013685053,-0.07317283,-0.03892346,-0.01794938,0.0014528631,0.4036825157215518,0.07841737298169246,90.18709304768916
1729571591611364,-0.28636977,0.19877537,-2.1811128,0.029704401,-0.013966849,-0.07312753,-0.038002733,-0.017612241,0.0028312204,0.39851713902617014,0.08615928033439774,90.19024180715692
1729571591619364,-0.28654554,0.19905156,-2.181585,0.029431181,-0.01412428,-0.07309163,-0.03415253,-0.019678844,0.004487112,0.3956336497378571,0.08965483386011773,90.1917171670081
1729571591627364,-0.28690612,0.19876772,-2.1819003,0.029114246,-0.01454618,-0.07302364,-0.03961683,-0.052737534,0.00849925,0.39241685190692543,0.09298103348927053,90.1931925042782
1729571591643364,-0.28758627,0.19820487,-2.1825542,0.028530357,-0.015435861,-0.072783634,-0.03649306,-0.055605076,0.015000346,0.3852010313915756,0.10000138401835584,90.19384824570893
1729571591651364,-0.28790644,0.19792534,-2.182892,0.028260887,-0.015875103,-0.07262917,-0.03368384,-0.054905187,0.01930818,0.3813818307580994,0.10335912097441392,90.19405319676753
1729571591659364,-0.28821373,0.19764686,-2.1832366,0.028000295,-0.016318124,-0.07247887,-0.03257394,-0.055377603,0.01878757,0.37733472981650434,0.10624398693074517,90.19423759954326
1729571591667364,-0.28850847,0.19736919,-2.1835878,0.027742358,-0.016757777,-0.07232522,-0.032242153,-0.054956645,0.019205734,0.3732094069443015,0.10856195977259181,90.19434690528246
1729571591683364,-0.28907502,0.1968151,-2.1843083,0.027220078,-0.017653657,-0.071980275,-0.032642506,-0.055992506,0.021559184,0.3642260854538138,0.11102836962297756,90.19402589925195
1729571591691364,-0.28934082,0.1965386,-2.1846771,0.026966896,-0.018089518,-0.071815625,-0.031647738,-0.0544826,0.020581296,0.35955806991572714,0.11112819462611832,90.19367757251973
1729571591699364,-0.28959534,0.19626226,-2.1850517,0.026729207,-0.018529544,-0.07161524,-0.02971105,-0.05500321,0.025047919,0.3548298162235415,0.11046705242262238,90.19330189051249
1729571591707364,-0.28983873,0.19598587,-2.1854312,0.026504984,-0.018973742,-0.071402706,-0.028027918,-0.05552475,0.026566906,0.3499702439211302,0.10931582992468286,90.19288522760726
1729571591723364,-0.29029313,0.19543262,-2.186205,0.02610347,-0.019831609,-0.07094844,-0.025094602,-0.053616703,0.028391832,0.33983303709076185,0.10554074304944724,90.19190167280779
1729571591731364,-0.29050452,0.19515552,-2.1865983,0.025915155,-0.02026009,-0.07069746,-0.023539409,-0.053560127,0.031372532,0.3343114414790927,0.10299904135524975,90.19132107478879
1729571591739364,-0.2907057,0.19487798,-2.1869955,0.025735296,-0.020668978,-0.0704353,-0.022482358,-0.05111098,0.032769516,0.3286360098538051,0.10022465950790105,90.1907199978238
1729571591747364,-0.29088953,0.19459806,-2.1873968,0.025583098,-0.021092312,-0.07018609,-0.019024825,-0.052916814,0.031150876,0.3227252153342535,0.09703338229170218,90.19001646854777
1729571591763364,-0.29126436,0.19502273,-2.1873536,0.025313994,-0.02142601,-0.069408454,-0.016818987,-0.020856153,0.04860246,0.31043402717801627,0.08910296857794137,90.19107510925004
1729571591771364,-0.29143682,0.19521837,-2.187353,0.02518631,-0.021607276,-0.06902008,-0.01596054,-0.022658145,0.048547048,0.304258837675661,0.08434442235767854,90.1922020739226
1729571591779364,-0.29159954,0.19540314,-2.1873655,0.025083547,-0.021783888,-0.06864732,-0.012845266,-0.022076534,0.046594996,0.29821819763449314,0.07948118262495905,90.19321292565613
1729571591787364,-0.29175273,0.19557735,-2.1873913,0.024993714,-0.021959253,-0.068285055,-0.011229188,-0.021920538,0.045282762,0.2924740103735934,0.07472522555071112,90.19427161139308
1729571591795364,-0.29189637,0.1957414,-2.1874297,0.024923831,-0.022114303,-0.06793818,-0.00873534,-0.019381288,0.04335958,0.28709827642826685,0.07025101450552945,90.1952892812708
1729571591811364,-0.29215616,0.1960403,-2.1875424,0.024785424,-0.022430418,-0.06728653,-0.008650473,-0.019757193,0.04072813,0.2773856263301275,0.06192605556862122,90.19729049269225
1729571591819364,-0.2922673,0.1961761,-2.1876168,0.024757892,-0.022593655,-0.06702789,-0.0034414695,-0.020404577,0.03232993,0.2729155486988923,0.057959227603352294,90.19826037418368
1729571591827364,-0.2923696,0.19630288,-2.1877031,0.024729792,-0.022745134,-0.06680112,-0.0035124829,-0.018934952,0.028345732,0.2686657961179956,0.054007934601101114,90.19933956172618
1729571591843364,-0.29254824,0.19653043,-2.1879103,0.024715832,-0.023031736,-0.0664188,-0.0008725328,-0.017912593,0.023895407,0.2607757898488202,0.046251851617571185,90.20156616657916
1729571591851364,-0.29262492,0.19663174,-2.1880312,0.02471105,-0.023187548,-0.066272154,-0.00059767626,-0.019476516,0.01833029,0.25721551185159447,0.04269751748568226,90.20271364347819
1729571591859364,-0.2926935,0.19672501,-2.1881633,0.024695942,-0.023333032,-0.06613386,-0.0018884892,-0.01818547,0.01728721,0.25414494853386194,0.03943522086453264,90.20403870417343
1729571591867364,-0.2927541,0.19681051,-2.188306,0.024705775,-0.023472512,-0.06602016,0.0012291129,-0.017435057,0.014211982,0.25147700440277737,0.036630787261866256,90.20530913587592
1729571591883364,-0.29220065,0.19668972,-2.1868427,0.024910407,-0.023757659,-0.06536285,0.012789503,-0.017821671,0.041082032,0.24733444397182822,0.032067759837737436,90.20807536959637
1729571591891364,-0.2919226,0.19662277,-2.1861591,0.025022138,-0.023896381,-0.065027416,0.013966345,-0.017340295,0.04192907,0.24584181838942853,0.030224015365845333,90.21032934222724
1729571591899364,-0.29164454,0.19655278,-2.1855068,0.025154058,-0.024013897,-0.064711556,0.016489998,-0.014689517,0.039482486,0.244572879519035,0.028716604422771644,90.21262428292768
1729571591907364,-0.29136634,0.19647986,-2.1848843,0.025269272,-0.024147926,-0.06442171,0.0144017385,-0.016753562,0.03623031,0.24343723493242014,0.02740714894607064,90.21487143784901
1729571591915364,-0.2910881,0.19640397,-2.184244,0.025375629,-0.024276137,-0.06419905,0.013294629,-0.016026432,0.027832573,0.24260543887598446,0.026319301128924524,90.21709808955062
1729571591931364,-0.29053137,0.19624335,-2.1830552,0.025601456,-0.024548125,-0.06396041,0.014114193,-0.016999198,0.01491513,0.24149117962316569,0.024524081778342508,90.22166067477859
1729571591939364,-0.29025275,0.19615853,-2.1825056,0.025707718,-0.024690457,-0.06394075,0.013282754,-0.01779152,0.00245776,0.24137086424684415,0.023787575210964456,90.22377807055561
1729571591947364,-0.28997386,0.19607064,-2.1819856,0.025830021,-0.024853265,-0.0639535,0.015287892,-0.020351026,-0.0015934928,0.2415970055461581,0.022916085689163045,90.22583398203575
1729571591955364,-0.2896954,0.19598022,-2.1814947,0.025940135,-0.025008572,-0.064025484,0.013764248,-0.019413419,-0.008998439,0.24225225875486953,0.02191517608456044,90.22794452117151
1729571591971364,-0.28913748,0.19579057,-2.1805985,0.026164927,-0.025276942,-0.06431481,0.014049466,-0.01677312,-0.018083025,0.24470036954528576,0.020432831500311447,90.23194703482513
1729571591979364,-0.28885794,0.19569135,-2.180144,0.026269166,-0.025428828,-0.064508386,0.0130299,-0.01898571,-0.02419669,0.24637759515625068,0.01985269227183053,90.23382533520181
1729571591987364,-0.288578,0.1955891,-2.179718,0.026373867,-0.025583705,-0.064699255,0.013087642,-0.019359635,-0.02385862,0.24821129998477565,0.019321978538178276,90.23563536208357
1729571592003364,-0.2883024,0.19561346,-2.1785474,0.026521841,-0.02578432,-0.06508551,0.009248382,-0.012538395,-0.02414081,0.2527068385648218,0.017899044619681396,90.23920073255937
1729571592011364,-0.28829926,0.19573508,-2.1778116,0.02657059,-0.025824577,-0.06523275,0.006093643,-0.0050321682,-0.018404797,0.2555886238310332,0.016776985893917035,90.24189871955303
1729571592019364,-0.28828853,0.19584887,-2.1771114,0.026608426,-0.025876805,-0.06542232,0.004729489,-0.006528571,-0.02369657,0.2588836847969064,0.015478876374189354,90.24454199349564
1729571592027364,-0.2882703,0.19596063,-2.1764464,0.026631484,-0.025926424,-0.06566452,0.0028822103,-0.006202375,-0.030275432,0.2624380232913482,0.01390415753292688,90.24715114555326
1729571592043364,-0.28821304,0.19616142,-2.175131,0.026666341,-0.026043631,-0.06626294,0.0021785963,-0.0073254337,-0.037400983,0.2698270328677198,0.010334823322211638,90.25047066020427
1729571592051364,-0.2881745,0.1962508,-2.1745257,0.026682686,-0.026092408,-0.06661041,0.002043089,-0.0060971356,-0.043434087,0.2734783958510603,0.008752593970722346,90.25198013240475
1729571592059364,-0.2881297,0.19633308,-2.1739545,0.02668037,-0.026154885,-0.06699231,-0.0002894085,-0.007809605,-0.04773773,0.27709120602464593,0.0074001498005261,90.25346912917897
1729571592067364,-0.2880789,0.19640836,-2.173417,0.026674416,-0.026214523,-0.06740974,-0.0007443595,-0.007454771,-0.052178275,0.2803751037958777,0.006344872225939584,90.25488982475447
1729571592075364,-0.28802225,0.19647683,-2.1729124,0.026674757,-0.026270697,-0.06782535,4.2608004e-05,-0.007021706,-0.051951032,0.28353485917531984,0.00567782154049073,90.25618757818557
1729571592091364,-0.287892,0.19659396,-2.1719992,0.026687704,-0.026413737,-0.06869757,0.00080920284,-0.008939998,-0.05451403,0.288517966438988,0.005096148220768705,90.25855766041784
1729571592099364,-0.28781685,0.19665217,-2.1715438,0.026681095,-0.026494341,-0.069172174,-0.00082608307,-0.010075512,-0.059325244,0.29035994071289,0.0048730598342014335,90.25963001994148
1729571592107364,-0.28773656,0.19670384,-2.1711202,0.026688267,-0.026592432,-0.06968151,0.0008963979,-0.012261326,-0.063667074,0.29208037780012686,0.004485046391111927,90.2593021587876
1729571592123364,-0.2872693,0.19700764,-2.1706972,0.026753178,-0.02665317,-0.07081504,0.0040569576,-0.003796187,-0.07084571,0.29547160969003716,0.003745705091972196,90.25852350982333
1729571592131364,-0.28688994,0.19725561,-2.1706877,0.026813641,-0.026630186,-0.07141469,0.007557915,0.00287313,-0.074955635,0.2973170697350196,0.0034982441361968183,90.25843470287295
1729571592139364,-0.2865131,0.19749312,-2.1706991,0.026885303,-0.02661078,-0.07204655,0.008957693,0.0024256296,-0.078982666,0.2992772540938254,0.0032964734108489576,90.25816835901772
1729571592147364,-0.2861386,0.19772038,-2.170731,0.026964316,-0.026601303,-0.07264183,0.009876675,0.0011846423,-0.07440988,0.301338689271815,0.0031961950278930904,90.25779948644494
1729571592163364,-0.2853942,0.1981451,-2.170762,0.027082624,-0.02658965,-0.07378262,0.007394235,0.0007282942,-0.071299724,0.30482338125241837,0.0033964049482705233,90.25675447817062
1729571592171364,-0.28502423,0.19834293,-2.170808,0.02713155,-0.026605874,-0.07431171,0.006115762,-0.002027955,-0.06613601,0.306488964485909,0.00374839981504894,90.25626272478617
1729571592179364,-0.28465652,0.19853126,-2.1708736,0.027185217,-0.026623331,-0.07483985,0.006708316,-0.0021820888,-0.06601773,0.308071732948778,0.0043008447263916515,90.25561384802917
