timestamp,x,y,z,vx,vy,vz,ax,ay,az,roll,pitch,yaw,failed_motor
1729710283777105,0.03726374,0.015643515,-1.8002946,-0.043907754,0.040307797,-0.11722387,0.0,0.0,0.0,0.7368951392336555,0.2572996403728453,90.40832308295926,0
1729710283785105,0.037450746,0.016009755,-1.8002348,-0.044572614,0.040111568,-0.11710696,-0.083107494,-0.024528706,0.014613382,0.7280684689705008,0.25989684625836634,90.41029719688052,0
1729710283793105,0.037619494,0.016379183,-1.80022,-0.04523624,0.039939947,-0.117000125,-0.08295336,-0.021452548,0.0133542335,0.7192219363473181,0.2625233480936376,90.41220979204367,0
1729710283809105,0.037896566,0.017114356,-1.8002691,-0.04653938,0.03960726,-0.11706232,-0.08144625,-0.020792939,-0.0038873402,0.7013145235787615,0.2679511121277459,90.41148590118189,0
1729710283817105,0.038005948,0.017480193,-1.8003325,-0.04715565,0.039442904,-0.11706286,-0.077033415,-0.020544508,-6.7055225e-05,0.6921909361643319,0.2706832179781151,90.41091907741124,0
1729710283825105,0.038096573,0.01784489,-1.8004203,-0.04778071,0.0392789,-0.1169932,-0.07813284,-0.020500736,0.008707866,0.6832423572549337,0.2733895508585895,90.41023609290072,0
1729710283841105,0.03822291,0.018570635,-1.8006653,-0.049023975,0.038931936,-0.116960146,-0.07770397,-0.021685146,0.0020656735,0.6657594723691473,0.2786223368921163,90.40863794880491,0
1729710283849105,0.03825935,0.01893174,-1.8008406,-0.0496435,0.038764372,-0.11710157,-0.077440865,-0.020945443,-0.017678365,0.6576495609707991,0.2811557269713475,90.40772964328224,0
1729710283857105,0.03827859,0.01929163,-1.8010389,-0.050229006,0.038581654,-0.11728302,-0.073187985,-0.022839753,-0.022680497,0.6496358897535888,0.2837796720779581,90.40671203125709,0
1729710283865105,0.038286015,0.019654421,-1.8012595,-0.050815552,0.038409516,-0.11746864,-0.07331837,-0.021517275,-0.023202969,0.6416798268060009,0.28646274234357244,90.4056328509639,0
1729710283873105,0.03827701,0.020015964,-1.8015022,-0.051386796,0.03823079,-0.11766961,-0.07140543,-0.022340564,-0.025121493,0.6337400342508196,0.28924706674552875,90.40346092588311,0
1729710283889105,0.03821098,0.020735132,-1.8020525,-0.052534472,0.037851173,-0.11817821,-0.071729764,-0.02372614,-0.031787436,0.6188424720127225,0.295090102746515,90.39889836432455,0
1729710283897105,0.03870663,0.020965554,-1.8016802,-0.052818965,0.037483335,-0.1183309,-0.03556162,-0.045979857,-0.019086525,0.6119880571711639,0.29815665865504115,90.39641900865057,0
1729710283909105,0.03917552,0.021195633,-1.8013461,-0.053098805,0.037121065,-0.11842681,-0.023320006,-0.030189132,-0.007991989,0.6052825280243612,0.3016830856128772,90.39626201042252,0
1729710283913105,0.03961839,0.021425387,-1.8010697,-0.0533703,0.036769424,-0.118486434,-0.06787386,-0.087910324,-0.014906748,0.5990629676261019,0.30504377255420784,90.39590700938695,0
1729710283929105,0.040428415,0.021884048,-1.8006212,-0.053960934,0.036084853,-0.11869624,-0.0369146,-0.042785656,-0.013113021,0.58768930332084,0.3109569341851889,90.39520364801643,0
1729710283937105,0.040794183,0.022113657,-1.8004477,-0.05425205,0.035735257,-0.11887867,-0.036389567,-0.043699514,-0.022803431,0.5825472247872112,0.31344102548603314,90.39476661402463,0
1729710283945105,0.041136358,0.02234275,-1.8003078,-0.05454722,0.035383116,-0.11912905,-0.036896206,-0.04401756,-0.031297095,0.578081110894902,0.31550126568692666,90.39369428367439,0
1729710283953105,0.041455455,0.022571167,-1.8002006,-0.054851238,0.03502875,-0.11938626,-0.038002152,-0.044296026,-0.03215205,0.5743728681454789,0.3172668965060643,90.39257421232054,0
1729710283969105,0.04202636,0.023026561,-1.8001035,-0.05547167,0.034385625,-0.11986271,-0.038777012,-0.040195182,-0.029778106,0.5692513758639046,0.3205720922556775,90.39032707451364,0
1729710283981105,0.042279325,0.02325322,-1.8001114,-0.055786546,0.034040786,-0.12010454,-0.026239702,-0.028736578,-0.020151958,0.5675680624732141,0.3220117907024527,90.38920697832593,0
1729710283985105,0.042511106,0.02347908,-1.8001482,-0.05613417,0.0337039,-0.12034421,-0.08690636,-0.084221356,-0.059917565,0.5663313251201726,0.323294579265529,90.38824390541417,0
1729710283993105,0.042722136,0.02370415,-1.8002135,-0.05646444,0.033379827,-0.12062871,-0.041283663,-0.04050927,-0.035562553,0.565488217561847,0.3243427365583852,90.38729451576604,0
1729710284009105,0.04307506,0.024153147,-1.8004283,-0.05713759,0.032711465,-0.12138954,-0.042071797,-0.041772608,-0.04755193,0.5645979403953671,0.3254547679309504,90.38537517648564,0
1729710284017105,0.04322242,0.024376182,-1.8005772,-0.057484068,0.03237874,-0.12175795,-0.043309756,-0.041590534,-0.046051104,0.5646262010252906,0.32566912193738184,90.38428916054835,0
1729710284025105,0.04363477,0.024718186,-1.8007449,-0.057806686,0.032101545,-0.12207951,-0.040327195,-0.03464939,-0.040194947,0.5648981191135883,0.32557872719276476,90.38324410250073,0
1729710284033105,0.04402101,0.025056418,-1.8009601,-0.058140196,0.03180943,-0.1224258,-0.04168879,-0.036514364,-0.04328694,0.5654907057867333,0.3252515398461619,90.38162526656558,0
1729710284049105,0.044717383,0.025721714,-1.8014647,-0.05884502,0.031261187,-0.12329587,-0.044051554,-0.03426522,-0.054379456,0.5673197916733741,0.32522499239413855,90.3785447562992,0
1729710284057105,0.045028523,0.026049035,-1.801753,-0.059200544,0.030993916,-0.123629846,-0.04444038,-0.03340887,-0.04174653,0.5686206083161461,0.3257310748885586,90.37713770022191,0
1729710284065105,0.045315646,0.026372898,-1.8020638,-0.059575606,0.030722065,-0.12386429,-0.046882775,-0.033981398,-0.029305926,0.5700957636875856,0.32630826189774365,90.37579894555206,0
1729710284081105,0.045819554,0.027011815,-1.8027484,-0.060344443,0.030199744,-0.12431799,-0.048052285,-0.032645065,-0.028355977,0.5737063936369697,0.32739974922349646,90.373312724784,0
1729710284089105,0.046037152,0.027326407,-1.8031435,-0.060753953,0.029938692,-0.12465286,-0.051188745,-0.032631446,-0.04185922,0.5759490471053657,0.3277773634710275,90.37207639989633,0
1729710284097105,0.046232395,0.027637873,-1.803559,-0.06116026,0.029687824,-0.124987975,-0.050788276,-0.031358562,-0.041889023,0.5782699249877092,0.3280531635561011,90.37087420378356,0
1729710284105105,0.046405748,0.027946256,-1.8039942,-0.06157659,0.029413696,-0.12532437,-0.05204137,-0.034265917,-0.04204921,0.5805995004239872,0.3280069523001443,90.36971312107931,0
1729710284113105,0.04655764,0.02825147,-1.8044486,-0.061980657,0.029139329,-0.12564506,-0.050508413,-0.034295954,-0.040085983,0.5826683825993696,0.3276225611048484,90.368674848856,0
1729710284129105,0.046798643,0.028852878,-1.8054137,-0.06285301,0.028614273,-0.12632792,-0.054521948,-0.032815963,-0.042678785,0.5865347467529394,0.326618266804846,90.3665027484768,0
1729710284137105,0.04688843,0.029149204,-1.8059233,-0.06329251,0.028369013,-0.12661393,-0.054937784,-0.030657507,-0.03575161,0.5882851659201311,0.3263225361573926,90.3654917974711,0
1729710284145105,0.046958257,0.029442908,-1.80645,-0.0637382,0.028143464,-0.12684588,-0.05571078,-0.028193694,-0.028993933,0.5899541943304534,0.3261422269126977,90.36459017274623,0
1729710284153105,0.047389578,0.029831862,-1.8063174,-0.06384665,0.027941968,-0.12690422,-0.01355633,-0.025186919,-0.0072922553,0.5916614810454106,0.32605196556812777,90.3636749310866,0
1729710284161105,0.047796305,0.030216014,-1.8062181,-0.06395728,0.027745176,-0.12699816,-0.013829208,-0.024599021,-0.011742114,0.592718465994469,0.3261230433753122,90.36207656491004,0
1729710284181105,0.048537605,0.030970912,-1.8061157,-0.064277224,0.027397709,-0.12712586,-0.015997142,-0.017373357,-0.0063851476,0.5938470938894362,0.32641655950556775,90.3588867494564,0
1729710284185105,0.048873004,0.031341825,-1.8061106,-0.06446807,0.027204307,-0.12714376,-0.04771165,-0.04835054,-0.0044740736,0.5939368788774957,0.3268796325124189,90.35737728273112,0
1729710284205105,0.049475502,0.03207081,-1.8061875,-0.064897865,0.02681905,-0.12721606,-0.02148971,-0.019262824,-0.0036150217,0.5933328919617709,0.3281789371487412,90.35469296277444,0
1729710284213105,0.049743515,0.03242901,-1.8062942,-0.06510481,0.02663191,-0.12733363,-0.025868414,-0.023392493,-0.014696269,0.5926945244258485,0.328944464531199,90.35336105835967,0
1729710284217105,0.049990065,0.032783024,-1.806428,-0.06533993,0.026409859,-0.12742274,-0.05877949,-0.055512875,-0.022277234,0.5921319083708401,0.3299886469638307,90.35210428562594,0
1729710284225105,0.0502155,0.033132847,-1.8065878,-0.065588385,0.026202742,-0.12750073,-0.031056812,-0.025889602,-0.009749085,0.5915737028918169,0.3313021462292525,90.35088172631868,0
1729710284233105,0.050418735,0.033481147,-1.8067731,-0.06586701,0.026021568,-0.12758216,-0.03482774,-0.022646736,-0.010179355,0.591166022730634,0.33286313747792645,90.34965229453988,0
1729710284249105,0.05076438,0.034166355,-1.8072178,-0.066446654,0.025653763,-0.12780759,-0.036227982,-0.022987833,-0.014089047,0.5916695327200466,0.33642898393363485,90.34682455888345,0
1729710284257105,0.05090753,0.034503333,-1.8074763,-0.06675512,0.025455931,-0.12796582,-0.038558617,-0.02472894,-0.019779427,0.5923323737016529,0.3384176706850477,90.3454244128057,0
1729710284265105,0.051031362,0.034836654,-1.8077585,-0.06708184,0.02528261,-0.1281646,-0.040839422,-0.021665122,-0.024847684,0.5930240640913841,0.3403097729962958,90.34406526760777,0
1729710284273105,0.05085127,0.03496617,-1.8074934,-0.067530766,0.02499662,-0.12825067,-0.056115907,-0.035748817,-0.010758637,0.5936625739101709,0.3423444584217072,90.34280168289564,0
1729710284289105,0.0504545,0.0352268,-1.807074,-0.06845733,0.02437969,-0.1284453,-0.0579101,-0.03855815,-0.012164003,0.5950539600473591,0.34666687236303,90.34251493746291,0
1729710284297105,0.050238084,0.035357613,-1.8069174,-0.06891958,0.024075935,-0.12851664,-0.05778111,-0.03796932,-0.008918345,0.595617163303866,0.34897455832903584,90.34243307721981,0
1729710284305105,0.05000994,0.03548869,-1.8067949,-0.06938306,0.023767615,-0.12855057,-0.05793571,-0.03853999,-0.004241243,0.5960246298476184,0.3513492139904439,90.34237851730161,0
1729710284313105,0.049770787,0.03562425,-1.806705,-0.06983578,0.023471277,-0.12858197,-0.05658995,-0.03704219,-0.0039245933,0.5962913889496081,0.35377381696565346,90.3423103173664,0
1729710284329105,0.04925802,0.03589562,-1.8066515,-0.07078366,0.022889331,-0.1288567,-0.059242357,-0.036371637,-0.017170794,0.5968840826840701,0.35802409089556686,90.33938018202724,0
1729710284337105,0.048984364,0.03603138,-1.8066863,-0.07127082,0.022592898,-0.12905017,-0.060895454,-0.037054066,-0.02418272,0.5972072604331894,0.35977692257976657,90.33801420188875,0
1729710284345105,0.048699394,0.03616705,-1.806751,-0.07173741,0.022309754,-0.12922753,-0.05832314,-0.03539305,-0.022171063,0.5973152057904231,0.36124973795509985,90.33664816067925,0
1729710284357105,0.048403293,0.03630263,-1.8068448,-0.07221349,0.022023518,-0.12942022,-0.03967372,-0.023853034,-0.016057244,0.5971531722894667,0.3626030495451589,90.33537095178202,0
1729710284369105,0.047777664,0.036573283,-1.8071185,-0.073180676,0.021469612,-0.12999614,-0.08059852,-0.04615883,-0.047992915,0.5959080925686849,0.36435292052522783,90.33306226098266,0
1729710284377105,0.047448426,0.036708266,-1.8072977,-0.07366435,0.021189526,-0.1303023,-0.060459595,-0.035010744,-0.038269907,0.5946309972318092,0.3647771745742807,90.3321128417404,0
1729710284385105,0.04710833,0.036842864,-1.807504,-0.074153185,0.020908331,-0.1305862,-0.06110407,-0.035149276,-0.035488978,0.59288642354684,0.3648757607485323,90.33114978174129,0
1729710284393105,0.04675453,0.036974408,-1.807766,-0.074630946,0.02061833,-0.13087498,-0.059720125,-0.0362501,-0.0360962,0.590616334426565,0.36469187552262655,90.3302754749735,0
1729710284413105,0.046482388,0.037599694,-1.8085018,-0.07547395,0.020347824,-0.13152985,-0.04215017,-0.013525318,-0.03274381,0.5845836517707406,0.36373493601381945,90.32692170245927,0
1729710284421105,0.046322335,0.037907045,-1.8089037,-0.07588805,0.02019698,-0.13184956,-0.051762905,-0.018855557,-0.039963048,0.5807384402285019,0.36318288020272144,90.3242646512698,0
1729710284425105,0.046146747,0.03821081,-1.8093274,-0.076293394,0.020043796,-0.13214608,-0.10133534,-0.038295984,-0.07412955,0.5764086051366721,0.36242169905676797,90.32166222284542,0
1729710284441105,0.04575021,0.038808104,-1.8102376,-0.077111214,0.019748341,-0.13270445,-0.051113773,-0.018465914,-0.03489852,0.5665611838162198,0.36074736223400417,90.31666912330702,0
1729710284449105,0.045529816,0.039101724,-1.8107502,-0.077518605,0.019600676,-0.1330038,-0.050923783,-0.018458115,-0.03741868,0.5612258005310778,0.3599400232435638,90.31421013103775,0
1729710284457105,0.04529511,0.039392125,-1.8112817,-0.07791848,0.019446464,-0.13323417,-0.04998408,-0.019276515,-0.028796492,0.5556943225643018,0.3593396751414551,90.31179213928543,0
1729710284465105,0.045046393,0.0396794,-1.8118309,-0.07831542,0.019314773,-0.1333588,-0.04961807,-0.01646136,-0.015579163,0.549916805070502,0.358859151223439,90.30936045053794,0
1729710284473105,0.044794407,0.039961986,-1.8123968,-0.078696884,0.019170929,-0.13342962,-0.04768278,-0.01798058,-0.00885129,0.5439485279159115,0.35860610909930246,90.30688102431274,0
1729710284489105,0.044250134,0.04051823,-1.8135768,-0.07946933,0.018869568,-0.1336379,-0.048277896,-0.018835068,-0.013018026,0.5316213289897369,0.3588593646710372,90.30326774397021,0
1729710284497105,0.043958355,0.040792022,-1.8141903,-0.079836376,0.018724237,-0.1337202,-0.04588067,-0.018166378,-0.010287388,0.5255547201965683,0.3594072846719808,90.30154649053992,0
1729710284505105,0.043653958,0.041063003,-1.8148187,-0.08020008,0.018572532,-0.13380854,-0.04546344,-0.018963125,-0.0110417595,0.5195203930942401,0.36028209974748443,90.29991408359092,0
1729710284513105,0.04333721,0.041331194,-1.8154893,-0.080557734,0.018420022,-0.13391206,-0.044706274,-0.019063707,-0.012939795,0.5136040515664676,0.3616099041976446,90.29845926202235,0
1729710284529105,0.041929178,0.04252229,-1.8176633,-0.08160903,0.018551307,-0.13429444,-0.0657062,0.008205301,-0.023898667,0.5020378190985626,0.3644270936107849,90.29162890309262,0
1729710284537105,0.041220393,0.043103628,-1.8187551,-0.0821252,0.01857175,-0.13445474,-0.0645211,0.002555316,-0.020038335,0.49633168688808943,0.36574385274796145,90.28635585404501,0
1729710284545105,0.04050771,0.04367645,-1.8198497,-0.082623884,0.0185924,-0.13457479,-0.06233528,0.002581393,-0.015005468,0.49047064893931713,0.36701645506650804,90.28186831578701,0
1729710284553105,0.039791193,0.044241007,-1.8209468,-0.083114155,0.018613866,-0.13466394,-0.061283816,0.00268314,-0.011144205,0.48458177964186144,0.3681579472429744,90.27761985149469,0
1729710284569105,0.038346626,0.04534616,-1.8231715,-0.084069654,0.01863445,-0.13472989,-0.059718728,0.0012865056,-0.0041220337,0.47215432464502155,0.3703740694888568,90.26924583088596,0
1729710284577105,0.037618723,0.045887057,-1.8242977,-0.08452908,0.018641777,-0.13468175,-0.05742814,0.0009159557,0.006018206,0.4655840952856046,0.3716205517822447,90.26527057308299,0
1729710284585105,0.036887117,0.046420455,-1.8254243,-0.08497445,0.01865669,-0.1346142,-0.055671666,0.001864042,0.00844337,0.4587380979696613,0.37336994427326775,90.26139095340218,0
1729710284601105,0.035413206,0.047465455,-1.8276781,-0.0858202,0.018648526,-0.13435857,-0.05285907,-0.00051024836,0.015976839,0.444203214777573,0.37856190695556396,90.25382984799086,0
1729710284609105,0.034670833,0.047977217,-1.8288045,-0.086246796,0.018625222,-0.13419268,-0.053324733,-0.002912944,0.020736827,0.4364384728736241,0.38203822965510864,90.250319102725,0
1729710284617105,0.03393551,0.048474137,-1.8299305,-0.08665704,0.018586956,-0.13398033,-0.05128048,-0.0047832727,0.026542692,0.42860587623044655,0.38597111956557106,90.24699964713857,0
1729710284625105,0.033196576,0.048964135,-1.8310555,-0.08703809,0.018538292,-0.13368316,-0.047631558,-0.006082933,0.037146732,0.4204749052197125,0.39028040079409737,90.24572250181983,0
1729710284641105,0.031708334,0.04992396,-1.8333483,-0.08777496,0.018415695,-0.1329878,-0.046054363,-0.0076623396,0.043460164,0.40369269235649513,0.39981228976172356,90.24357802440788,0
1729710284649105,0.031107966,0.050431434,-1.8340647,-0.08807088,0.01833781,-0.13255343,-0.03698934,-0.0097355805,0.054296102,0.3951024688674326,0.40473094760794776,90.24271753760291,0
1729710284657105,0.030501042,0.050931245,-1.83479,-0.088333055,0.018236028,-0.13206092,-0.03277231,-0.012722797,0.061564144,0.38631719404964954,0.40982346254113966,90.24210979981073,0
1729710284665105,0.02988784,0.05142344,-1.8355234,-0.08857796,0.018128805,-0.1315448,-0.030613502,-0.013402895,0.06451458,0.3772908794626737,0.41499679784312865,90.2416181620006,0
1729710284681105,0.028643308,0.052385345,-1.8370119,-0.08904558,0.017884633,-0.1304034,-0.029225832,-0.015260767,0.07133745,0.35881707941905405,0.4254473750835356,90.24107202476563,0
1729710284689105,0.028010473,0.052853268,-1.8377918,-0.089273416,0.01775628,-0.12981352,-0.028479842,-0.016044127,0.07373467,0.34924008908971454,0.43072451052316335,90.24102438495042,0
1729710284697105,0.027372126,0.053313766,-1.838577,-0.08948675,0.01759087,-0.12919596,-0.026666557,-0.02067629,0.077195466,0.3395247133887272,0.43617718522668875,90.2416734238837,0
1729710284709105,0.026728425,0.053766835,-1.839367,-0.08970143,0.0174225,-0.12857527,-0.017890086,-0.01403084,0.051724415,0.329685898680736,0.44159541842696826,90.24245912798848,0
1729710284713105,0.026079562,0.054212485,-1.8401616,-0.08989411,0.01724198,-0.12794882,-0.048169862,-0.04512956,0.1566112,0.3196847900114965,0.44710034292070366,90.2435044006685,0
1729710284721105,0.02542581,0.054650832,-1.8409603,-0.090067305,0.017061325,-0.12733096,-0.021649523,-0.02258201,0.07723272,0.30973107853338966,0.4523972644502787,90.24464525620878,0
1729710284737105,0.024104998,0.055505216,-1.8425698,-0.09034037,0.016624946,-0.12615024,-0.017066486,-0.027273664,0.07379521,0.28995162014028497,0.4621265918037374,90.24734359374577,0
1729710284745105,0.023438295,0.055921424,-1.8433803,-0.09046718,0.016411649,-0.12557097,-0.01585111,-0.026662134,0.07240847,0.2802358626679911,0.46662095053119496,90.24896939418248,0
1729710284753105,0.022767639,0.05633039,-1.8442202,-0.090581685,0.01619278,-0.124968216,-0.014313496,-0.02735853,0.075344,0.2705547684960508,0.4709115201465271,90.2508138126954,0
1729710284761105,0.022093127,0.056732178,-1.8450624,-0.09070736,0.015957402,-0.124371134,-0.01570955,-0.02942234,0.07463526,0.26075714611417816,0.4751617502104649,90.252897266379,0
1729710284777105,0.020877983,0.057927594,-1.8467176,-0.09081889,0.01567347,-0.12310648,-0.0069704833,-0.017745769,0.07904088,0.24125168977799646,0.48329278786897284,90.25905183234104,0
1729710284785105,0.020343136,0.05871681,-1.8475311,-0.09082162,0.015650049,-0.12245416,-0.00034086403,-0.0029276123,0.08154008,0.2317551304314398,0.48692278999592664,90.26033611092585,0
1729710284801105,0.019254915,0.06025005,-1.8491642,-0.090774626,0.015547981,-0.121139556,0.0029369255,-0.006379268,0.08216267,0.21334316688463603,0.4935253699990293,90.26308223064402,0
1729710284809105,0.018702175,0.060994565,-1.850009,-0.090723015,0.015471341,-0.12047204,0.006451271,-0.009579933,0.083439976,0.204445106726885,0.4964718528123608,90.26447578362377,0
1729710284817105,0.01814405,0.06172467,-1.8508545,-0.09067173,0.015386082,-0.119815566,0.006410293,-0.010657356,0.082058825,0.19586932205894514,0.499212409587773,90.2659034422786,0
1729710284825105,0.017580708,0.06244062,-1.8517007,-0.09061201,0.015284654,-0.119153194,0.0074654813,-0.012678559,0.08279643,0.18780694354962366,0.5018897858312381,90.26744726599576,0
1729710284833105,0.017012296,0.06314264,-1.8525472,-0.09055775,0.015167569,-0.118516624,0.006782822,-0.014635617,0.07957126,0.18038262660930832,0.5047398455887914,90.26897058399683,0
1729710284849105,0.015859585,0.06450483,-1.8542413,-0.090422735,0.014919867,-0.11723154,0.008438248,-0.015481374,0.08031772,0.16708157726043027,0.5119858942999101,90.27166895522927,0
1729710284857105,0.015276411,0.065166056,-1.8550885,-0.09035848,0.014763838,-0.11659385,0.008031726,-0.01950364,0.07971096,0.16099083093949723,0.5166064366111134,90.27290544990474,0
1729710284865105,0.014688812,0.06581415,-1.8559356,-0.09030109,0.014585229,-0.115942754,0.0071739773,-0.022326129,0.08138734,0.15528704187225337,0.5216348895334394,90.2741488908745,0
1729710284881105,0.013501083,0.06707189,-1.8576798,-0.09012584,0.01421388,-0.11467492,0.010953284,-0.023209315,0.07923971,0.14468844961725033,0.53210334410128,90.27690203431014,0
1729710284889105,0.012901534,0.06768193,-1.8585502,-0.0900299,0.013997927,-0.114019364,0.011991709,-0.026994035,0.08194427,0.13975541748724696,0.5371363987655237,90.27831622625382,0
1729710284897105,0.012418463,0.06812134,-1.8591592,-0.0897707,0.013681425,-0.11330804,0.032400712,-0.039562814,0.08891522,0.13496697804323793,0.5420038714370587,90.27971667669807,0
1729710284905105,0.01193103,0.06855167,-1.8597733,-0.08952017,0.013365229,-0.112576276,0.03131572,-0.039524514,0.09147077,0.1298891426707072,0.5468382094213725,90.28374692326602,0
1729710284913105,0.011438446,0.06896675,-1.8603917,-0.08927552,0.013036299,-0.11181872,0.030581838,-0.04111626,0.09469408,0.12500696871015646,0.5515946942060161,90.28777724428886,0
1729710284929105,0.010441321,0.069770426,-1.8616662,-0.08877462,0.012344261,-0.110254854,0.031305943,-0.043252364,0.097741835,0.11572374858800265,0.561330414097898,90.29848126653543,0
1729710284941105,0.009937214,0.07015916,-1.8623208,-0.088519566,0.011990928,-0.10946257,0.021254644,-0.029444383,0.06602394,0.11130557939699125,0.5665584300965104,90.30385722412838,0
1729710284945105,0.009429604,0.0705392,-1.8629775,-0.08826389,0.011631649,-0.1086896,0.06391853,-0.089819774,0.19324197,0.10701169239832138,0.5717099809028314,90.3092673616919,0
1729710284953105,0.008918681,0.070910566,-1.8636366,-0.08800552,0.0112552345,-0.10795924,0.032296404,-0.04705181,0.09129475,0.10291959814143013,0.5766831419610406,90.31472532224524,0
1729710284969105,0.0078872675,0.07162711,-1.8649608,-0.08750069,0.010479065,-0.10647461,0.03155181,-0.04851061,0.09278952,0.09540745801770713,0.585624159439154,90.32562070401715,0
1729710284977105,0.007366982,0.07197234,-1.8656257,-0.0872592,0.01007407,-0.10580215,0.030186025,-0.050624363,0.08405744,0.09206711333674403,0.5894749344141063,90.3309761769236,0
1729710284985105,0.0068487697,0.07230362,-1.8662928,-0.086996615,0.0096695395,-0.10515617,0.032823533,-0.050566275,0.08074752,0.08895107285194784,0.5930622554014605,90.33631112604743,0
1729710284993105,0.006327827,0.072626345,-1.8669883,-0.08674698,0.009249318,-0.10453167,0.031203961,-0.05252764,0.07806253,0.08604896350896762,0.5963227791412808,90.34271164995508,0
1729710285009105,0.0052780835,0.07324591,-1.8683828,-0.086237796,0.008372961,-0.10331918,0.031824224,-0.05477236,0.07578032,0.08106105173556495,0.6019124206231788,90.35525316123793,0
1729710285017105,0.004749531,0.073542826,-1.8690817,-0.08599091,0.007941294,-0.10271398,0.030860303,-0.053958267,0.0756504,0.07867363912331155,0.6042183775307508,90.36154437481356,0
1729710285025105,0.0043281815,0.07299475,-1.86948,-0.08564395,0.00699929,-0.10203297,0.043370757,-0.11775054,0.0851266,0.07634654775046683,0.6061908114095691,90.36787659767967,0
1729710285041105,0.0034740113,0.07192157,-1.8703005,-0.08498283,0.0051530227,-0.10064415,0.041319985,-0.11539171,0.08680112,0.07138105249609053,0.611253067694023,90.39349901470882,0
1729710285049105,0.0030415053,0.071395636,-1.8707498,-0.084646374,0.004246326,-0.09993564,0.04205666,-0.11333706,0.08856318,0.06880856589351951,0.6135950492303509,90.4062658670055,0
1729710285057105,0.0026119952,0.07087634,-1.8712054,-0.08431826,0.0033577648,-0.09925702,0.04101451,-0.11107016,0.08482765,0.0660441232923094,0.6154833849881265,90.4189780375507,0
1729710285065105,0.0021790885,0.07036336,-1.8716669,-0.08397358,0.0024766354,-0.09859111,0.04308484,-0.11014117,0.08323881,0.063384371185544,0.6167445883022037,90.43082270423184,0
1729710285073105,0.0017430125,0.06985631,-1.8721342,-0.0836338,0.0016006274,-0.097943485,0.04247203,-0.10950099,0.080953345,0.06090471384309036,0.6171687249496849,90.44243506432606,0
1729710285089105,0.0008614987,0.06885837,-1.8730859,-0.08297373,-0.0001494165,-0.09673576,0.041254327,-0.10937774,0.07548276,0.05643403409621388,0.6140707351716729,90.4653794367542,0
1729710285097105,0.00041631772,0.06836687,-1.8735698,-0.082636565,-0.0010057103,-0.09616498,0.042146068,-0.107036725,0.07134769,0.05429370285194738,0.6103982849776219,90.47661575168166,0
1729710285105105,-3.1582676e-05,0.06787996,-1.8740591,-0.08229392,-0.0018498943,-0.09561013,0.04283059,-0.10552299,0.06935652,0.05235921298443891,0.6056899384346599,90.48776325450706,0
1729710285121105,-0.00093509123,0.06691913,-1.8751075,-0.08161384,-0.003464352,-0.094571926,0.042505093,-0.10090361,0.06488757,0.04941016631817994,0.5936424257042099,90.50959344098395,0
1729710285129105,-0.0013853442,0.066446625,-1.8756385,-0.08126795,-0.004230107,-0.094107196,0.043235715,-0.09571938,0.058091242,0.04842396834229742,0.5865790485004766,90.52016692141933,0
1729710285141105,-0.0018379381,0.06597811,-1.8761737,-0.080925435,-0.0049637957,-0.0936703,0.028543174,-0.061140705,0.036407884,0.04765512270863228,0.5790894119309601,90.52966796349702,0
1729710285145105,-0.0022928065,0.06551345,-1.8767134,-0.080597326,-0.0056901257,-0.09324431,0.08202716,-0.18158251,0.10649859,0.04699577535736551,0.571123836145104,90.53905280398149,0
1729710285161105,-0.0035873405,0.064893246,-1.8772521,-0.080049604,-0.0071172733,-0.092135824,0.034232624,-0.08919672,0.069280155,0.04588741786109838,0.5544646279229111,90.55808868519416,0
1729710285169105,-0.004230854,0.06458164,-1.8775653,-0.079783104,-0.0077972366,-0.091593966,0.033312477,-0.084995404,0.0677323,0.04539446247734946,0.54586587711483,90.56784917164478,0
1729710285177105,-0.0048719067,0.06426901,-1.877887,-0.07951162,-0.00846315,-0.09103238,0.033935532,-0.08323916,0.07019844,0.04481372338931979,0.536994345934537,90.57741148798522,0
1729710285185105,-0.005510617,0.06395554,-1.8782166,-0.079257086,-0.00909803,-0.0905037,0.031816773,-0.07935997,0.06608479,0.04401611837719031,0.5278630559671189,90.58668687555151,0
1729710285193105,-0.0061471174,0.063641325,-1.8785543,-0.07900083,-0.009723334,-0.09000735,0.03203191,-0.07816299,0.062043775,0.04296189038313466,0.5184248352093405,90.59536798047039,0
1729710285209105,-0.0074189394,0.06301294,-1.8792536,-0.07848594,-0.010842017,-0.08910377,0.032180455,-0.0699177,0.056473535,0.040084781202297456,0.4988227004984393,90.61197876820006,0
1729710285217105,-0.008051699,0.06269858,-1.8796148,-0.0782325,-0.011364523,-0.0886894,0.0316808,-0.0653133,0.051796433,0.038433060970962434,0.48880382824968177,90.61986751058753,0
1729710285225105,-0.00868246,0.062384307,-1.8799837,-0.077983834,-0.011867561,-0.08826083,0.031082889,-0.062879756,0.053571533,0.03649503039685074,0.47871917471880737,90.62740774987337,0
1729710285237105,-0.009311211,0.062070105,-1.8803877,-0.07772556,-0.012374318,-0.08785759,0.021522865,-0.042229734,0.03360336,0.034417008662087675,0.468521300502214,90.63457922054282,0
1729710285249105,-0.0105629675,0.06144217,-1.8812141,-0.0772162,-0.013324156,-0.08705178,0.04244658,-0.07915318,0.06715084,0.030126511869890068,0.4477932013622234,90.64768568350804,0
1729710285257105,-0.011185948,0.061128795,-1.8816363,-0.07694745,-0.013744098,-0.086692594,0.033593737,-0.052492715,0.044898126,0.02775607089960867,0.4374058812488356,90.65366860487642,0
1729710285265105,-0.011807047,0.0608161,-1.8820643,-0.07668659,-0.01415123,-0.08634995,0.032607466,-0.050891537,0.04283059,0.025164744760158505,0.427304544270035,90.65914609531526,0
1729710285273105,-0.012546958,0.0605339,-1.8819603,-0.07653439,-0.0145523995,-0.085946724,0.019025058,-0.05014613,0.050403174,0.022439835879976472,0.4177148046487068,90.66423422722411,0
1729710285289105,-0.0140164215,0.059968386,-1.8818429,-0.076197,-0.015319973,-0.08522029,0.021087004,-0.047973353,0.04540197,0.01705698617600906,0.39998384908241646,90.67289421850992,0
1729710285297105,-0.014746033,0.059685413,-1.8818276,-0.07602901,-0.015672455,-0.08486086,0.020998528,-0.04406017,0.04492886,0.014448949673658014,0.3917289949184841,90.67662321124159,0
1729710285313105,-0.016195305,0.059119307,-1.8818492,-0.07565498,-0.01635749,-0.08424074,0.02337666,-0.042814758,0.038757455,0.009794902037197926,0.37584975615155575,90.68321366237929,0
1729710285321105,-0.016915126,0.058836363,-1.8818856,-0.07548845,-0.01668122,-0.08396953,0.02081692,-0.040466197,0.033901073,0.007447340917889033,0.3680035711099733,90.68594543721784,0
1729710285329105,-0.017631823,0.058553573,-1.8819386,-0.07529015,-0.016993178,-0.08371437,0.024787148,-0.038994707,0.031895004,0.005084802919608733,0.3602009896478975,90.68832876314684,0
1729710285337105,-0.01834536,0.058271024,-1.8820076,-0.0750988,-0.017291559,-0.083462365,0.023919156,-0.037297606,0.031501055,0.0025382636474526785,0.3523226677028225,90.69038429442034,0
1729710285345105,-0.019051395,0.05798824,-1.8820924,-0.074899055,-0.017571762,-0.0832407,0.024967825,-0.03502541,0.027707776,-0.00024535763279977946,0.3445958199383576,90.69217341842611,0
1729710285361105,-0.020454636,0.05742415,-1.8823702,-0.07451444,-0.018100163,-0.082866855,0.024038365,-0.033025045,0.023365485,-0.007045670284165743,0.32956351400700173,90.69534186996586,0
1729710285369105,-0.021152006,0.057142958,-1.8825303,-0.07430575,-0.018332591,-0.08271499,0.026086343,-0.029053537,0.018983148,-0.010926821596072705,0.3225089349519814,90.69632498736594,0
1729710285377105,-0.021846492,0.05686246,-1.8827043,-0.07409941,-0.018569674,-0.08258228,0.025792977,-0.029635381,0.016588718,-0.0149301805707645,0.3158872572754657,90.6969870617678,0
1729710285385105,-0.022538204,0.056582723,-1.8828919,-0.07389054,-0.018778086,-0.0824785,0.026108695,-0.026051419,0.012972391,-0.019139830686598747,0.3097909290808363,90.69728036854723,0
1729710285393105,-0.023227124,0.05630389,-1.883093,-0.07367808,-0.018970234,-0.08239207,0.026556661,-0.024018575,0.010804272,-0.023406507176843713,0.3039550356975058,90.69735508050246,0
1729710285409105,-0.024485836,0.054932564,-1.8832086,-0.07292243,-0.019952027,-0.08216689,0.047228295,-0.061362047,0.01407368,-0.032172294187635585,0.29309197928847763,90.70240915285504,0
1729710285417105,-0.025107486,0.054254826,-1.8833071,-0.07250902,-0.020421416,-0.08205869,0.051676292,-0.058673553,0.0135246655,-0.036720669763429616,0.28790302321604827,90.70760706137573,0
1729710285425105,-0.025725141,0.053584624,-1.8834214,-0.07209058,-0.020867022,-0.08196293,0.052304935,-0.05570077,0.011970288,-0.04138775951534818,0.28280819919576816,90.71232005330965,0
1729710285441105,-0.0269486,0.05226622,-1.8836952,-0.07126824,-0.021712901,-0.081738934,0.05139643,-0.052867454,0.01399964,-0.051058855037334004,0.2724262164535315,90.72128834915988,0
1729710285449105,-0.027554492,0.0516178,-1.8838543,-0.07086565,-0.022104315,-0.08166757,0.05032308,-0.048926797,0.008920208,-0.05582563827982162,0.2671616830627584,90.72540018586673,0
1729710285457105,-0.02815648,0.05097648,-1.8840277,-0.07045465,-0.022470705,-0.08161481,0.051375475,-0.045798715,0.006595626,-0.06048478743947137,0.26149368631036785,90.72932761693086,0
1729710285465105,-0.028754607,0.050342172,-1.8842154,-0.070051156,-0.022813817,-0.08158611,0.0504367,-0.042889033,0.0035874543,-0.06516940584115713,0.2553803380071863,90.73302949005348,0
1729710285473105,-0.029348766,0.04971478,-1.8844484,-0.0696297,-0.023143781,-0.08160008,0.05268212,-0.04124548,-0.0017462297,-0.06983718953913552,0.24868041789797204,90.73651968238022,0
1729710285489105,-0.0305226,0.048478905,-1.8849539,-0.06878313,-0.023752144,-0.081678994,0.05291076,-0.03802264,-0.004932284,-0.07872109390436981,0.23423099768335318,90.74274169754162,0
1729710285497105,-0.031102229,0.047870252,-1.8852257,-0.06834965,-0.024016287,-0.081706055,0.054184344,-0.033017945,-0.0033825634,-0.08287287752368504,0.2267497188874758,90.74808307391298,0
1729710285505105,-0.031677753,0.04726834,-1.8855094,-0.06791017,-0.024257062,-0.08171681,0.05493499,-0.030096851,-0.0013448297,-0.08674282305617827,0.2192810772319774,90.75306229459532,0
1729710285513105,-0.032249197,0.046673026,-1.8858049,-0.06747715,-0.024496768,-0.08172309,0.054127533,-0.029963206,-0.00078417355,-0.09040844344657598,0.21194762994764307,90.75793924539855,0
1729710285529105,-0.03323689,0.046606958,-1.8875788,-0.066545375,-0.024507442,-0.08194785,0.058236063,-0.00066717615,-0.014047603,-0.0972869127812245,0.19714111283642083,90.76689370552654,0
1729710285537105,-0.033726808,0.046564557,-1.8884732,-0.066087306,-0.024489682,-0.08205972,0.05725864,0.0022200402,-0.0139838075,-0.10065789594736554,0.189836357284387,90.77102603361045,0
1729710285545105,-0.034214087,0.046516385,-1.8893635,-0.06563577,-0.024457373,-0.08214666,0.05644187,0.0040386803,-0.010867602,-0.1039546645458406,0.18253544681891,90.77493976476613,0
1729710285553105,-0.034698773,0.04646277,-1.89025,-0.06518767,-0.02440398,-0.082205206,0.05601253,0.00667409,-0.0073183323,-0.10717839927924434,0.1752066581412765,90.77865548074146,0
1729710285569105,-0.035659328,0.046340667,-1.8920101,-0.06426655,-0.024284301,-0.08222625,0.057570167,0.007479917,-0.0013150274,-0.11320036741339151,0.16042657226711268,90.78529439349224,0
1729710285577105,-0.036135156,0.04627283,-1.8928837,-0.063803785,-0.024201928,-0.0821788,0.057845373,0.010296701,0.0059306617,-0.11581131108949273,0.1530999129739881,90.7887642369938,0
1729710285585105,-0.036608264,0.046201017,-1.8937526,-0.06334613,-0.024104407,-0.082100086,0.057206485,0.01219008,0.009839422,-0.11811303330310591,0.14604026141774182,90.79191308918536,0
1729710285593105,-0.037078746,0.046125557,-1.8946433,-0.06290568,-0.023992695,-0.0820104,0.055056993,0.013964017,0.011210329,-0.12017914618612754,0.13933769061917797,90.79476125017054,0
1729710285609105,-0.03801204,0.045965042,-1.8964086,-0.061997198,-0.02374975,-0.0817382,0.05677994,0.0151840495,0.017012935,-0.12327343333674924,0.12782780339044217,90.79944688904264,0
1729710285617105,-0.038474668,0.045880392,-1.8972831,-0.06154852,-0.0236187,-0.081561215,0.056084707,0.016381266,0.022122635,-0.1244890115119616,0.12301521655697774,90.80137305750848,0
1729710285625105,-0.038934655,0.04579326,-1.898152,-0.061092813,-0.023471246,-0.08133493,0.05696341,0.018431805,0.028285196,-0.1255494499962491,0.11873774770832923,90.80297135988071,0
1729710285641105,-0.0398467,0.045612607,-1.8998715,-0.06019471,-0.023170391,-0.08070885,0.05613151,0.018803403,0.03913045,-0.1273761286721937,0.11196366708313941,90.8052867622003,0
1729710285649105,-0.040704172,0.045697544,-1.9008065,-0.059905875,-0.022894155,-0.0803209,0.036104117,0.03452948,0.04849303,-0.1281898011307314,0.10952956054059815,90.80599712893788,0
1729710285657105,-0.04156366,0.045783482,-1.901732,-0.059640657,-0.022620762,-0.07990046,0.03315229,0.03417418,0.05255546,-0.12876375574115895,0.10745699461810025,90.80525939609741,0
1729710285665105,-0.04241168,0.045864724,-1.9026479,-0.059376944,-0.022338117,-0.07943841,0.032964163,0.035330653,0.057755966,-0.1292453293602166,0.10584506051126086,90.80293004768482,0
1729710285681105,-0.044074275,0.046014275,-1.9044507,-0.058836654,-0.02178673,-0.07843955,0.033768125,0.03446161,0.062428877,-0.12996843497798502,0.1041018585731424,90.79725351229823,0
1729710285689105,-0.044889435,0.04608287,-1.9053375,-0.058559515,-0.021532184,-0.07790766,0.034642406,0.0318184,0.06648619,-0.13025699686327535,0.10365855588904259,90.7939337385618,0
1729710285697105,-0.045694135,0.04614748,-1.9062144,-0.058284067,-0.021277543,-0.07732865,0.034430996,0.031830043,0.07237587,-0.13048212608878126,0.10353976109610119,90.79031327598805,0
1729710285705105,-0.046488695,0.046208367,-1.9070814,-0.058007494,-0.021017278,-0.07671936,0.034571625,0.03253319,0.0761617,-0.1307289864964505,0.10366745382582548,90.78634455399794,0
1729710285713105,-0.04727329,0.04626576,-1.9079632,-0.057722554,-0.020758156,-0.076076694,0.0356175,0.032390233,0.080333084,-0.1310652340508276,0.10421345631125739,90.78215040983802,0
1729710285721105,-0.048048213,0.04631972,-1.908834,-0.057444707,-0.020512966,-0.07541184,0.03473088,0.03064866,0.08310656,-0.1314089976770874,0.10525760321483103,90.77762161686123,0
1729710285737105,-0.049570285,0.046425834,-1.9105428,-0.056880616,-0.0200189,-0.07400456,0.03525568,0.030879162,0.08795503,-0.13273204904610503,0.10857035745189102,90.76678801634901,0
1729710285745105,-0.05031775,0.04647443,-1.9113808,-0.056603987,-0.019744094,-0.073299244,0.03457861,0.034350667,0.088164575,-0.13362952698348962,0.11071548767625383,90.76070863091753,0
1729710285753105,-0.051056497,0.046520427,-1.9122078,-0.056325436,-0.019478515,-0.07259429,0.03481889,0.03319746,0.08811894,-0.13471752983984356,0.11291905497325953,90.75436980981293,0
1729710285769105,-0.052508727,0.04660514,-1.9138552,-0.055798084,-0.018946147,-0.07118359,0.032959506,0.03327301,0.08816877,-0.1369974428797406,0.11761004372511741,90.74070833947857,0
1729710285777105,-0.05263339,0.047052335,-1.9148301,-0.055204988,-0.018565949,-0.07052746,0.074137,0.04752469,0.082016915,-0.13838404823901357,0.12001532936148722,90.73357705512926,0
1729710285785105,-0.052762076,0.047487684,-1.9157902,-0.05460018,-0.018196072,-0.06987049,0.07560104,0.046234574,0.08212122,-0.1405079803575111,0.1223662537164504,90.72783244990981,0
1729710285793105,-0.052894596,0.047911614,-1.9167358,-0.05400712,-0.017825464,-0.069230765,0.074132346,0.04632608,0.07996521,-0.1431775271680128,0.12469872871883773,90.72195129353867,0
1729710285809105,-0.05318133,0.048724517,-1.9185843,-0.052881163,-0.017088214,-0.06789918,0.07037236,0.046078112,0.08322391,-0.15008178764475122,0.13002903752680064,90.71055773571659,0
1729710285817105,-0.053329777,0.04911541,-1.9194876,-0.05232981,-0.016733527,-0.06721614,0.068919264,0.044335842,0.08537992,-0.15383191036634486,0.13315713901525697,90.70504546221562,0
1729710285825105,-0.0534814,0.04949629,-1.9203771,-0.05178369,-0.016393878,-0.066510856,0.06826501,0.0424562,0.08816085,-0.15753206161370623,0.1368026692202149,90.69949903833655,0
1729710285833105,-0.053635906,0.04986745,-1.9212756,-0.051228046,-0.016056394,-0.065787636,0.06945524,0.04218542,0.09040254,-0.16116764345136808,0.14085698536450963,90.69374080890904,0
1729710285849105,-0.053952333,0.050581668,-1.9230299,-0.05008801,-0.015417851,-0.06428873,0.07125223,0.039908975,0.09368173,-0.16766947826551143,0.15064040924251082,90.6818214746642,0
1729710285857105,-0.054113727,0.050925296,-1.9238857,-0.049521137,-0.015112091,-0.06354457,0.07085921,0.038219962,0.09301956,-0.17036750136369322,0.15598930694749846,90.67579700258187,0
1729710285865105,-0.054277,0.051260248,-1.9247278,-0.048960272,-0.01481336,-0.06276908,0.0701081,0.03734138,0.0969367,-0.17262864422082655,0.16150611994222433,90.66966325106343,0
1729710285881105,-0.054609194,0.05190555,-1.9263711,-0.047841415,-0.014278258,-0.061233565,0.06992859,0.03344385,0.09596953,-0.17540549309577166,0.17269228316507224,90.65737524790664,0
1729710285889105,-0.054777697,0.05221621,-1.9271954,-0.047282416,-0.014030746,-0.06045165,0.0698748,0.030939,0.0977395,-0.17592586711854483,0.17827653595438248,90.65116631943337,0
1729710285897105,-0.054752756,0.05264287,-1.927861,-0.046657763,-0.013743515,-0.059701905,0.078081615,0.035903882,0.09371805,-0.17598684147655688,0.18403105245598608,90.64481407795832,0
1729710285905105,-0.05473322,0.053058874,-1.9285178,-0.04602661,-0.013476972,-0.058958016,0.07889419,0.033317946,0.09298603,-0.17580700101152522,0.18987423035764814,90.63872128758318,0
1729710285913105,-0.054718763,0.053464476,-1.929166,-0.04540565,-0.013208321,-0.058206905,0.07762015,0.03358128,0.09388895,-0.17523895979808832,0.1958445965694804,90.63259442073961,0
1729710285929105,-0.054704297,0.054245427,-1.9304363,-0.04418889,-0.01274222,-0.05667033,0.076047376,0.029131303,0.09603588,-0.17279407875734204,0.20730291014175992,90.62042957322491,0
1729710285937105,-0.054703806,0.05462116,-1.9310584,-0.043588176,-0.012523392,-0.055912327,0.075089276,0.027353525,0.09475043,-0.17107062396524467,0.21282382117180262,90.61439155431277,0
1729710285945105,-0.05470758,0.054987367,-1.9316723,-0.04298818,-0.012307963,-0.05518137,0.07499941,0.02692861,0.091369726,-0.16894573621907505,0.21832504388021912,90.60834655549787,0
1729710285953105,-0.054688957,0.055359636,-1.9323014,-0.04235543,-0.01207463,-0.054477796,0.07909396,0.029166693,0.087946646,-0.16657437237824535,0.2239957973255182,90.60224709525903,0
1729710285969105,-0.054663736,0.05607666,-1.9335335,-0.041120812,-0.011676832,-0.053068116,0.07716356,0.024862353,0.08810497,-0.1613734738661475,0.2360562210277127,90.58465195123125,0
1729710285977105,-0.054656986,0.05642172,-1.934137,-0.040522624,-0.011490092,-0.05236181,0.07477356,0.023342552,0.08828844,-0.15842445307583722,0.24237462796936318,90.57585438549576,0
1729710285985105,-0.054653976,0.05675809,-1.9347321,-0.039934926,-0.011315727,-0.051671803,0.073462255,0.021795625,0.08625071,-0.1552961721379583,0.24892286521893228,90.56704322029401,0
1729710285993105,-0.054654595,0.057085812,-1.935319,-0.039360102,-0.011173309,-0.050996598,0.07185293,0.017802231,0.08440064,-0.15195421646814777,0.2554244945516549,90.55830031217488,0
1729710286009105,-0.05466614,0.05771599,-1.9364909,-0.038210116,-0.010894198,-0.04965795,0.07187412,0.017444428,0.083665594,-0.14436393651499835,0.26763422524166286,90.54092391514754,0
1729710286017105,-0.054676704,0.058018666,-1.9370756,-0.037650254,-0.010793143,-0.048993483,0.069982834,0.012631876,0.08305813,-0.14009126096085522,0.2733006506659795,90.53231764700047,0
1729710286025105,-0.05493615,0.058444306,-1.9377364,-0.037308324,-0.010627652,-0.048324186,0.042741183,0.02068642,0.0836621,-0.13550518209775078,0.2786974165000963,90.52370451004879,0
1729710286041105,-0.05545252,0.059263565,-1.9390259,-0.03661377,-0.010306925,-0.047015324,0.04340964,0.020045437,0.08180388,-0.12539415298134818,0.28897964542674454,90.50169694048667,0
1729710286049105,-0.055709373,0.059657484,-1.9396551,-0.036268692,-0.010186926,-0.046369642,0.043134667,0.014999764,0.08071027,-0.12028459934437764,0.29394509711855477,90.49080929643158,0
1729710286057105,-0.055965386,0.060041115,-1.940274,-0.03594048,-0.010075073,-0.045720838,0.04102662,0.013981712,0.08110049,-0.11532586755354333,0.2989269863844386,90.47995579309577,0
1729710286065105,-0.056220703,0.060414743,-1.9408827,-0.03562152,-0.009951601,-0.045057148,0.039869916,0.015433993,0.082961276,-0.11036807207532603,0.30384556436792226,90.46919798585425,0
1729710286081105,-0.05672969,0.061132908,-1.9421114,-0.03502366,-0.009750967,-0.043765407,0.03736629,0.012539618,0.08073379,-0.10078565033834418,0.3135918521947216,90.44785311704969,0
1729710286089105,-0.05698336,0.06147781,-1.9427103,-0.034716908,-0.009663997,-0.04314166,0.038343947,0.010871211,0.07796846,-0.09597697284034092,0.3185104636423271,90.43733433126883,0
1729710286097105,-0.057236463,0.061813474,-1.9432993,-0.034417138,-0.009590537,-0.042525135,0.037471298,0.009182491,0.07706554,-0.09140574316355532,0.32356106761063647,90.42681561364621,0
1729710286105105,-0.057489056,0.062139947,-1.9438783,-0.03413229,-0.009552514,-0.041911934,0.03560586,0.0047528883,0.07665017,-0.08724142365309465,0.32895097466254364,90.41640614192765,0
1729710286125105,-0.057993975,0.0627459,-1.9450078,-0.033596635,-0.009544465,-0.04071958,0.026782788,0.00040247105,0.059617683,-0.07986540806595367,0.34042391387462767,90.39709687071989,0
1729710286129105,-0.058245968,0.06303556,-1.9455796,-0.033329073,-0.009547187,-0.04012333,0.06689038,-0.0006805639,0.14906283,-0.07657184212969673,0.3462912050898812,90.38844968946343,0
1729710286137105,-0.0584977,0.0633166,-1.9461417,-0.033062488,-0.009564552,-0.03953536,0.033323187,-0.00217068,0.07349625,-0.07353946489718914,0.35183363293353753,90.37997334452618,0
1729710286145105,-0.058749072,0.063589066,-1.946694,-0.032787286,-0.009597798,-0.03894768,0.034400262,-0.0041556777,0.07345993,-0.07074477101979357,0.3571188063970064,90.3716130788909,0
1729710286153105,-0.05920219,0.06390615,-1.9470865,-0.03255731,-0.009697641,-0.038274944,0.028747132,-0.01248042,0.0840919,-0.06830233821534536,0.36221107955928616,90.36344402701403,0
1729710286169105,-0.060092326,0.064508386,-1.9478523,-0.032129556,-0.009897669,-0.036905024,0.026734544,-0.012501724,0.08561997,-0.06435726588501481,0.37171612308053936,90.34720841488911,0
1729710286177105,-0.060529687,0.064794056,-1.9482253,-0.031899936,-0.009998787,-0.036210023,0.028702429,-0.012639793,0.08687516,-0.06296965480670527,0.3759013572066768,90.33936720937997,0
1729710286185105,-0.060964935,0.065071136,-1.9485917,-0.03167419,-0.010090432,-0.035531946,0.02821814,-0.011455616,0.08475966,-0.061936299428730496,0.37975580213931187,90.33178554528392,0
1729710286201105,-0.061820194,0.06559623,-1.9493469,-0.031209938,-0.010291955,-0.03422135,0.029015819,-0.012595206,0.081912145,-0.060401975447492776,0.38672659301556744,90.31609625145819,0
1729710286209105,-0.062240474,0.065844506,-1.9497144,-0.030980878,-0.010399083,-0.033582687,0.02863258,-0.013390904,0.07983296,-0.05988081340984788,0.3900939002886138,90.30854192722134,0
1729710286217105,-0.06265601,0.066083536,-1.9500755,-0.030761214,-0.010514807,-0.03299583,0.027457949,-0.014465534,0.073357016,-0.05948467828938428,0.3934430124291871,90.30125395787826,0
1729710286229105,-0.063066795,0.06631335,-1.9504306,-0.0305312,-0.010651793,-0.032441985,0.019167861,-0.011415531,0.046153862,-0.05910183981489287,0.39671864625793535,90.29425968439747,0
1729710286241105,-0.06387459,0.06674601,-1.9511234,-0.030073699,-0.010915207,-0.031391848,0.038125087,-0.021951118,0.08751141,-0.05888316752024033,0.40323096342880876,90.281124991873,0
1729710286249105,-0.064277835,0.066953436,-1.9514817,-0.0298418,-0.011050093,-0.03090848,0.028987413,-0.01686078,0.060420945,-0.05918647243762924,0.4060646554693207,90.27482744170737,0
1729710286257105,-0.06467653,0.06715219,-1.9518342,-0.029619172,-0.011202243,-0.030417087,0.027828382,-0.019018771,0.061424214,-0.059754707461060604,0.40858732685769394,90.26845470522665,0
1729710286265105,-0.065070845,0.06734246,-1.952181,-0.029401146,-0.011334213,-0.02994264,0.02725329,-0.016496284,0.05930592,-0.060610694926137534,0.4107688543312213,90.26238934468195,0
1729710286273105,-0.06559056,0.06735848,-1.9525412,-0.029387942,-0.011515453,-0.02939551,0.0016505363,-0.022655003,0.068391204,-0.06191154658491939,0.4126195632073358,90.25656304154437,0
1729710286289105,-0.06661676,0.06737811,-1.9532396,-0.02936263,-0.011944007,-0.028286116,0.0015819677,-0.026784603,0.06933708,-0.06481998325738766,0.41518260520896144,90.2405936014577,0
1729710286297105,-0.06712345,0.067381665,-1.9535776,-0.029329782,-0.012158261,-0.027748622,0.0041059684,-0.026781693,0.06718677,-0.06659366188061377,0.416205132784013,90.23292306398693,0
1729710286305105,-0.067625865,0.067381136,-1.9539088,-0.029293794,-0.012369632,-0.027243746,0.004498521,-0.026421387,0.06310944,-0.06856173961533968,0.4172874262316975,90.22547791159508,0
1729710286321105,-0.068618245,0.06736776,-1.9545889,-0.029215246,-0.012813992,-0.026289187,0.0049092337,-0.027772503,0.05965994,-0.07357373718862134,0.4198460406805859,90.2111614282069,0
1729710286329105,-0.069105476,0.06736387,-1.9549187,-0.029160945,-0.013013523,-0.025851898,0.0067877113,-0.0249414,0.05466118,-0.07670929383805562,0.4211033629534745,90.20444033619161,0
1729710286337105,-0.069588654,0.067356095,-1.955242,-0.029085571,-0.013204776,-0.02542618,0.009421725,-0.023906583,0.053214837,-0.08027934030294598,0.4221638852591203,90.1969815304494,0
1729710286345105,-0.07006776,0.06734444,-1.9555591,-0.029013498,-0.013407807,-0.025019199,0.009009149,-0.025378888,0.05087256,-0.08420157369185759,0.4228058871337075,90.1897618312667,0
1729710286353105,-0.0705429,0.06732896,-1.9558704,-0.028925229,-0.0136134885,-0.0246208,0.01103361,-0.025710206,0.04979991,-0.08846719375064555,0.4232421239959067,90.182808468393,0
1729710286369105,-0.071481034,0.06728639,-1.9564952,-0.028716194,-0.014035687,-0.023897354,0.013064709,-0.026387393,0.04521536,-0.09739453754849463,0.4237960514622228,90.16937990861034,0
1729710286377105,-0.071943976,0.06725929,-1.9568086,-0.028579596,-0.014275778,-0.023531027,0.017074635,-0.030011402,0.0457908,-0.10203345429481082,0.42388804808971964,90.16307542912315,0
1729710286385105,-0.07240281,0.06722835,-1.9571161,-0.02845148,-0.014485683,-0.023185702,0.016014557,-0.026238149,0.043165635,-0.10678445234700451,0.4239333260126447,90.15699638989203,0
1729710286393105,-0.072857544,0.06719375,-1.9574178,-0.028296491,-0.014685797,-0.022832263,0.019373605,-0.025014158,0.044179846,-0.11157338390409827,0.4239454392578328,90.15121786680457,0
1729710286409105,-0.07404613,0.067193285,-1.9585018,-0.02778143,-0.015125399,-0.022299169,0.03219128,-0.027475178,0.03331841,-0.12126966423523927,0.42370888412505453,90.14237932828446,0
1729710286417105,-0.07462576,0.067185886,-1.9590267,-0.027534824,-0.0153318,-0.022042168,0.030825844,-0.02580008,0.03212504,-0.12597259508109163,0.4232383352719826,90.13940808209477,0
1729710286425105,-0.075196,0.06717394,-1.9595407,-0.027278032,-0.0155371465,-0.021786682,0.032098964,-0.025668297,0.031935748,-0.1304906977106707,0.4224013208227986,90.13658713727915,0
1729710286437105,-0.075756826,0.067157425,-1.9600608,-0.027007613,-0.015762625,-0.021534419,0.022534901,-0.018789899,0.021021968,-0.13475588935802774,0.4211949326507315,90.13409400129893,0
1729710286449105,-0.07685069,0.06711096,-1.9610686,-0.026457231,-0.01618928,-0.020984352,0.045865152,-0.035554636,0.045838922,-0.14294465984002247,0.418245839306745,90.13009134336163,0
1729710286457105,-0.0773839,0.0670812,-1.9615566,-0.026173167,-0.01641221,-0.020689996,0.03550807,-0.0278661,0.036794458,-0.14690290022856775,0.41658363130888854,90.12831542095893,0
1729710286469105,-0.07790797,0.06704712,-1.9620342,-0.025855914,-0.016631108,-0.020405665,0.026437765,-0.018241504,0.023694243,-0.1507665459586332,0.4148630987202993,90.12686735601349,0
1729710286473105,-0.07842194,0.06701671,-1.9625019,-0.025533611,-0.01682243,-0.020109372,0.0805757,-0.047830395,0.0740732,-0.1547675437599088,0.4129897904137413,90.12558322748656,0
1729710286489105,-0.07942265,0.06694394,-1.9634249,-0.024869999,-0.017189877,-0.019517973,0.04147575,-0.022965482,0.036962446,-0.16263599496685174,0.4088550717494464,90.12289198119208,0
1729710286501105,-0.07990962,0.06690169,-1.9638804,-0.024533186,-0.017386507,-0.01922491,0.028067734,-0.016385844,0.024421917,-0.16672001798282388,0.4066472905948241,90.12199034626445,0
1729710286505105,-0.080387816,0.06685549,-1.9643261,-0.02419773,-0.017591467,-0.018923791,0.0838642,-0.051239967,0.075279735,-0.17077482631318527,0.4043280364459089,90.1213960555073,0
1729710286513105,-0.08085722,0.06680541,-1.9647623,-0.023839468,-0.017788254,-0.018596642,0.044782642,-0.024598323,0.040893674,-0.17472199805787833,0.40181158307601633,90.12111596811195,0
1729710286529105,-0.08267494,0.06661397,-1.966265,-0.023401145,-0.01821637,-0.018107623,0.027395202,-0.026757246,0.030563677,-0.18185042638825352,0.39620660993577594,90.1209587837486,0
1729710286537105,-0.08356096,0.06651684,-1.9669901,-0.023171557,-0.018404886,-0.017825408,0.02869847,-0.023564555,0.035276867,-0.1851916589260173,0.39312019834491213,90.12106120271184,0
1729710286545105,-0.08442814,0.066417135,-1.9676982,-0.02294108,-0.018586695,-0.017529605,0.02880953,-0.022726132,0.03697537,-0.18830621018846605,0.389832612820572,90.12074013382217,0
1729710286561105,-0.086107574,0.066210054,-1.9690906,-0.022454558,-0.01895883,-0.016938694,0.03040768,-0.023258382,0.036931943,-0.19454409624681746,0.3827982918929736,90.12093811973256,0
1729710286569105,-0.08692056,0.066102766,-1.9697622,-0.02219227,-0.019133246,-0.016608834,0.032786045,-0.021802027,0.04123244,-0.19753593441719658,0.3792392043908157,90.12131372983518,0
1729710286581105,-0.08771616,0.06599314,-1.9704176,-0.021927945,-0.019295063,-0.01626692,0.022027021,-0.013484775,0.028492883,-0.20040325062138256,0.37574028400718695,90.12186011208472,0
1729710286585105,-0.08849478,0.06588128,-1.9710569,-0.021650692,-0.019441962,-0.015898481,0.06931321,-0.036724843,0.09210966,-0.20313932026485426,0.3723356022803384,90.12256359853035,0
1729710286593105,-0.0892566,0.065767236,-1.9716804,-0.021351416,-0.01961125,-0.015505376,0.037409596,-0.021161044,0.04913809,-0.20586734373948873,0.36937145153267925,90.12348563989356,0
1729710286609105,-0.09072969,0.065525845,-1.9728949,-0.020707175,-0.019915653,-0.014682871,0.04026503,-0.019025173,0.05140656,-0.21137068774885467,0.364763220428459,90.12567811825748,0
1729710286617105,-0.09144152,0.06539872,-1.9734857,-0.020362277,-0.020064946,-0.014237407,0.043112315,-0.018661609,0.055683076,-0.21436559198191338,0.36277511506266086,90.12778867644596,0
1729710286625105,-0.09213763,0.06526968,-1.9740613,-0.020015122,-0.02021562,-0.01379582,0.043394275,-0.018834136,0.055198323,-0.21760655838980753,0.3608078746408111,90.1300426627424,0
1729710286637105,-0.092818335,0.06513868,-1.9746217,-0.01965876,-0.02036586,-0.013336623,0.029696928,-0.0125200795,0.038266413,-0.22133748871951772,0.358676413400277,90.13246055962742,0
1729710286653105,-0.093748614,0.064789265,-1.9757817,-0.01871734,-0.020586576,-0.012382461,0.058838744,-0.013794749,0.059635144,-0.2296130523594881,0.35361928099116124,90.13737150635828,0
1729710286657105,-0.09400612,0.064574204,-1.9763792,-0.018111002,-0.020653348,-0.011901113,0.15158439,-0.016693026,0.12033688,-0.2342717586251148,0.3508531355074986,90.14293819898941,0
1729710286665105,-0.094256386,0.06436061,-1.9769602,-0.017503066,-0.020725362,-0.011415905,0.07599196,-0.009001698,0.060650982,-0.23890874426864842,0.3481390186334655,90.14866196793074,0
1729710286673105,-0.09449943,0.064148374,-1.9775364,-0.016881248,-0.020797972,-0.010912261,0.07772725,-0.009076204,0.06295554,-0.24333652418967472,0.34568143950647157,90.15457699901192,0
1729710286689105,-0.09495864,0.06373104,-1.9786403,-0.015654914,-0.020924283,-0.009888168,0.076645866,-0.007894472,0.064005785,-0.2515402837808639,0.34159144333399855,90.16681690773703,0
1729710286697105,-0.09517482,0.063525885,-1.9791684,-0.015030729,-0.020987852,-0.009365947,0.07802317,-0.007946044,0.06527767,-0.25545140194140376,0.33997111237575556,90.17254752251046,0
1729710286709105,-0.0953838,0.063321866,-1.979681,-0.014406366,-0.021063486,-0.00885433,0.0520302,-0.0063028806,0.04263478,-0.25928826649449993,0.33845051486296956,90.17833280859621,0
1729710286721105,-0.095780104,0.06291677,-1.9806612,-0.013145657,-0.02123145,-0.007833049,0.10505909,-0.0139970025,0.08510674,-0.2663231512185191,0.33501439012023776,90.19027899747293,0
1729710286729105,-0.09596734,0.06271546,-1.9811414,-0.012506019,-0.021335585,-0.0073155565,0.079954736,-0.013016862,0.06468652,-0.2694005329262874,0.33303042657623383,90.19636478725941,0
1729710286741105,-0.09614729,0.06251485,-1.9816071,-0.01186066,-0.021436285,-0.006797355,0.05377992,-0.008391682,0.04318345,-0.2722398264845246,0.33086850201826207,90.20256668847527,0
1729710286745105,-0.09631986,0.062314905,-1.9820583,-0.01120866,-0.021525389,-0.006281969,0.16300006,-0.022275837,0.1288465,-0.2746814716662621,0.32881359488355355,90.20883010850581,0
1729710286761105,-0.096644744,0.061918296,-1.9829183,-0.009917053,-0.021719312,-0.0052229958,0.08072541,-0.012120231,0.06618583,-0.2785645322877944,0.32546904218938993,90.2214388570883,0
1729710286769105,-0.09679715,0.06172152,-1.9833277,-0.009280002,-0.021811172,-0.0047131423,0.079631455,-0.011482508,0.06373168,-0.2798306672556429,0.32408033036327644,90.22762710020379,0
1729710286777105,-0.09678066,0.061645586,-1.9830639,-0.008538978,-0.021859076,-0.004060484,0.09262794,-0.005987938,0.081582285,-0.2806223053351376,0.32284337940120367,90.23390416121323,0
1729710286785105,-0.09675994,0.061567523,-1.9828043,-0.007797971,-0.021889072,-0.0034202726,0.0926259,-0.0037495045,0.08002642,-0.281337353425086,0.32198070751479163,90.24124676578788,0
1729710286793105,-0.09673471,0.061487556,-1.9825633,-0.007022069,-0.021915313,-0.0027626085,0.096987754,-0.0032801179,0.082208015,-0.28163006546661584,0.3213815890964475,90.24860993335044,0
1729710286809105,-0.096670486,0.06132167,-1.9820901,-0.0055384613,-0.02200256,-0.0015483495,0.09272547,-0.005452893,0.07589118,-0.28069335197538026,0.31971507689949064,90.2634932290627,0
1729710286817105,-0.096631765,0.06123574,-1.981858,-0.004811045,-0.022060078,-0.00097457547,0.09092706,-0.00718981,0.071721755,-0.279432213669639,0.31831203824678994,90.27076069506374,0
1729710286825105,-0.09658856,0.06114781,-1.9816289,-0.0040685846,-0.022102451,-0.0004287583,0.09280751,-0.005296664,0.06822715,-0.27775155136549357,0.31654699422785054,90.27790523115789,0
1729710286833105,-0.09655541,0.061061602,-1.9814026,-0.0033681667,-0.022122225,8.340866e-05,0.087552235,-0.0024717299,0.064020865,-0.2753717901592622,0.31461065958784246,90.2850428842454,0
1729710286849105,-0.09647564,0.06088377,-1.9809752,-0.0019760693,-0.022191683,0.000876654,0.087006085,-0.0043411274,0.049577832,-0.26870891319097784,0.31092801217701765,90.29782924733667,0
1729710286857105,-0.09642919,0.060792193,-1.9807739,-0.0013080782,-0.022231044,0.0012157642,0.08349889,-0.0049201767,0.042388774,-0.2647883757751916,0.3094212396946704,90.30404486748326,0
1729710286865105,-0.09637843,0.060698837,-1.9805759,-0.0006316899,-0.022269953,0.00153421,0.08454853,-0.0048635993,0.03980573,-0.26057795560018593,0.3080045952087271,90.31011022228175,0
1729710286881105,-0.09626408,0.060506787,-1.9801905,0.0006753153,-0.02236408,0.002050755,0.08168783,-0.0058829314,0.032284062,-0.25162524219678034,0.3051483079470617,90.3220565134382,0
1729710286889105,-0.096200734,0.060408134,-1.9800031,0.0013090126,-0.02241698,0.0022460104,0.07921216,-0.00661239,0.024406908,-0.24634841590894851,0.30363019693942706,90.32788961902646,0
1729710286897105,-0.095867835,0.060344715,-1.9795637,0.002065951,-0.02239415,0.0025245715,0.09461729,0.0028535721,0.03482014,-0.24061880761578436,0.3021723847471264,90.33361347976746,0
1729710286905105,-0.09553645,0.060279835,-1.9791337,0.0027985617,-0.022354897,0.002748624,0.09157633,0.0049066725,0.028006557,-0.23475143687828054,0.3006702292710364,90.34146154105008,0
1729710286917105,-0.09520657,0.060213555,-1.9787283,0.0035232445,-0.022323728,0.0029372633,0.060390234,0.0025974587,0.015719948,-0.22878594938968433,0.29908995264832605,90.3491115035751,0
1729710286929105,-0.094550595,0.06007711,-1.9779444,0.004959316,-0.0222308,0.003254822,0.11967262,0.007743947,0.02646322,-0.21624879710763384,0.296101117600623,90.36407003886191,0
1729710286941105,-0.09422436,0.060007107,-1.9775658,0.0056408877,-0.022180544,0.003332357,0.05679764,0.0041880026,0.0064612445,-0.20954822510404844,0.2947924252846283,90.37140589335752,0
1729710286945105,-0.093899384,0.0599359,-1.9771963,0.006294369,-0.022142934,0.0033485587,0.16337039,0.009402633,0.0040504383,-0.2026689874076762,0.29355358339543036,90.37862563483172,0
1729710286961105,-0.09325329,0.05979006,-1.9764858,0.0075334413,-0.022041228,0.0032451036,0.077442,0.0063566254,-0.0064659393,-0.18826664662824646,0.29085874523718114,90.39250492838217,0
1729710286969105,-0.09294179,0.05971269,-1.9761598,0.008111403,-0.02200609,0.0031302462,0.07224525,0.0043921173,-0.014357181,-0.1806769887437356,0.2896981317917724,90.39925333984569,0
1729710286977105,-0.09263149,0.05963427,-1.975843,0.008689131,-0.02195704,0.0030158293,0.072215915,0.0061313617,-0.014302117,-0.17279626018716251,0.288805900281169,90.4059608168569,0
1729710286985105,-0.092322424,0.05955478,-1.975535,0.009232338,-0.021926766,0.0028683562,0.067900866,0.0037841962,-0.018434133,-0.16456119762835414,0.2880352797603859,90.41244972999857,0
1729710286993105,-0.09201456,0.059474234,-1.9752362,0.009772625,-0.021882204,0.0027050092,0.0675359,0.00557024,-0.020418374,-0.15612611119943579,0.2872489176422654,90.41883614130099,0
1729710287009105,-0.09140218,0.059310365,-1.9746647,0.010840073,-0.021785336,0.00235602,0.06671552,0.0060542948,-0.02181182,-0.1389453343673643,0.2857434557595368,90.43112409917015,0
1729710287017105,-0.09109743,0.059226964,-1.9743919,0.011351664,-0.02175639,0.0021664088,0.063948795,0.003618188,-0.023701401,-0.13030521899217848,0.28485423948315797,90.43701193622493,0
1729710287025105,-0.09067523,0.05900476,-1.974104,0.0118858665,-0.02176967,0.0019404928,0.06677536,-0.0016600824,-0.028239504,-0.12166691918784114,0.2839827659768983,90.44266755013771,0
1729710287033105,-0.090256765,0.05878483,-1.9738404,0.0124069145,-0.02178419,0.0016843169,0.06513099,-0.0018149148,-0.032021984,-0.11293879387704119,0.2832442427251096,90.4484324712546,0
1729710287049105,-0.08941806,0.058347963,-1.9733415,0.013442896,-0.021803938,0.0010615643,0.06474886,-0.0012342351,-0.038922034,-0.09532112638034265,0.28279942122854035,90.45988715494799,0
1729710287061105,-0.089003876,0.058132656,-1.9731064,0.013939484,-0.021807527,0.0006997885,0.04138231,-0.00029910976,-0.030147983,-0.08671945449032481,0.2831574769184173,90.46558383003789,0
1729710287065105,-0.08859312,0.057919335,-1.9728808,0.014415465,-0.021812165,0.00034606995,0.11899531,-0.0011594966,-0.08842964,-0.0782362232017918,0.2837110758604013,90.47112338705492,0
1729710287081105,-0.087781854,0.057498142,-1.9724573,0.015312654,-0.021851057,-0.0003574707,0.056074288,-0.002430752,-0.04397129,-0.06167865912895374,0.2844136334839849,90.48156045057397,0
1729710287089105,-0.08738131,0.057289936,-1.9722729,0.01573319,-0.021872018,-0.00071343617,0.052566987,-0.002620043,-0.04449568,-0.053405434613783366,0.2841791363292402,90.48647833128929,0
1729710287097105,-0.08698422,0.05708325,-1.972097,0.016130129,-0.021886813,-0.0010745134,0.049617372,-0.0018493737,-0.045134656,-0.04500101792842724,0.2834986170219057,90.49108214627094,0
1729710287105105,-0.086590655,0.056878038,-1.9719296,0.016489297,-0.021905003,-0.0014362993,0.044896033,-0.002273824,-0.045223232,-0.036570719808470736,0.2825964607540945,90.49560385412887,0
1729710287113105,-0.08620579,0.05666972,-1.9717703,0.016820304,-0.021940103,-0.001798369,0.041375864,-0.0043874606,-0.04525871,-0.028123471865535838,0.28161058036657693,90.49981829903919,0
1729710287133105,-0.08544673,0.05625677,-1.9714769,0.01745043,-0.021992544,-0.0025732762,0.03150627,-0.0026220456,-0.03874536,-0.011433819459722199,0.2796615785162264,90.50869790869751,0
1729710287137105,-0.08507243,0.05605219,-1.9713423,0.017759155,-0.022007903,-0.002947633,0.077181496,-0.0038398427,-0.09358919,-0.0030687390048404722,0.2787034463478084,90.51274831085105,0
1729710287145105,-0.084701486,0.055848744,-1.9712157,0.018052293,-0.022037674,-0.0033086857,0.036642186,-0.003721332,-0.045131598,0.00520754676687963,0.27778685616947174,90.51655978476802,0
1729710287153105,-0.08477642,0.055754233,-1.9716722,0.01819375,-0.022109427,-0.0037830756,0.01768209,-0.008969102,-0.05929873,0.013311206785401443,0.2766711743972624,90.52020724637231,0
1729710287169105,-0.08490475,0.055556845,-1.9725642,0.018442562,-0.022231422,-0.004707002,0.015550758,-0.0076247375,-0.0577454,0.029437359228167856,0.27395147372993695,90.52308962438305,0
1729710287177105,-0.084962465,0.055450074,-1.973,0.018533481,-0.022292174,-0.0051632524,0.011364928,-0.007594004,-0.05703128,0.03714132324002123,0.2721907857116316,90.52430539230336,0
1729710287185105,-0.08501387,0.05534074,-1.9734296,0.018616272,-0.022354482,-0.005594922,0.0103488555,-0.0077884174,-0.053958733,0.044490695628744026,0.2700254314217546,90.5258148489419,0
1729710287193105,-0.0850592,0.055228967,-1.9738529,0.018685292,-0.022398602,-0.006004226,0.0086275395,-0.005515059,-0.05116296,0.05155660539105689,0.2676905482364774,90.52713986429148,0
1729710287209105,-0.085133255,0.054998584,-1.9746903,0.018771056,-0.022475142,-0.0067499694,0.0053602266,-0.0047837384,-0.046608966,0.06450059310661956,0.2632840684207919,90.52916836607919,0
1729710287217105,-0.08516246,0.05488012,-1.9751045,0.018800827,-0.022506226,-0.0070845913,0.003721332,-0.0038854775,-0.04182773,0.0704881355862128,0.26105353473896753,90.52995374936819,0
1729710287225105,-0.08518691,0.054759573,-1.9755123,0.018799465,-0.022534106,-0.007378839,-0.00017019919,-0.0034850088,-0.036780953,0.07597229151687838,0.25885960737141506,90.53047962520778,0
1729710287233105,-0.08520685,0.054637052,-1.9759136,0.018808825,-0.022551838,-0.007631801,0.001169974,-0.0022165477,-0.031620264,0.0809849446538688,0.2567374781315709,90.53083468849948,0
1729710287249105,-0.08522221,0.05438636,-1.9766971,0.018832924,-0.022558274,-0.00803106,0.0015061813,-0.0004022149,-0.024953682,0.08969724915305015,0.2529575713646153,90.53110772876572,0
1729710287257105,-0.08521822,0.054258216,-1.977079,0.018834583,-0.022587048,-0.0081640035,0.00020745209,-0.0035967676,-0.016617937,0.09346116861569988,0.25131614895580434,90.53075250748414,0
1729710287269105,-0.08521058,0.05412829,-1.9774543,0.018834246,-0.022592848,-0.008287041,-2.8094897e-05,-0.00048335642,-0.010253163,0.09679794442494552,0.2497783011525137,90.53021967564409,0
1729710287281105,-0.08478838,0.05399895,-1.9779469,0.018735936,-0.022568464,-0.008374896,-0.008192535,0.0020319906,-0.0073212045,0.1022833238653896,0.24649625775531642,90.52720725274342,0
1729710287289105,-0.08458193,0.05392926,-1.9781877,0.018692411,-0.02257378,-0.008355688,-0.005440553,-0.0006644986,0.0024009496,0.10453426224812419,0.24482532732957477,90.5248574944456,0
1729710287297105,-0.08437852,0.05385626,-1.9784248,0.018645128,-0.022567216,-0.00828788,-0.0059104054,0.00082049513,0.008476083,0.10628896050992111,0.243080971917478,90.52235747735942,0
1729710287305105,-0.084178135,0.05378018,-1.9786577,0.018596722,-0.022545815,-0.008203784,-0.0060508023,0.0026752239,0.010511953,0.10759843250013983,0.24137906566579367,90.51962514880285,0
1729710287313105,-0.08398073,0.053701047,-1.9788865,0.018543145,-0.02254712,-0.00808472,-0.00669714,-0.00016321427,0.0148829995,0.10829276903543107,0.23980485326588735,90.51670850467667,0
1729710287329105,-0.08360199,0.053540617,-1.9793404,0.018440133,-0.022518657,-0.007856782,-0.0064382325,0.0017789424,0.01424615,0.10811222245934174,0.2362036049550278,90.51071800550841,0
1729710287337105,-0.08341667,0.053456232,-1.9795653,0.018388122,-0.022496913,-0.007718293,-0.0065013296,0.0027180647,0.017311074,0.10738422933372767,0.23453995960676913,90.50755536211179,0
1729710287345105,-0.083234,0.053369176,-1.9797856,0.018333664,-0.022479605,-0.007557536,-0.006807269,0.0021634623,0.020094622,0.10619969123348125,0.2331091564630148,90.50429033056938,0
1729710287353105,-0.08305389,0.053279497,-1.9800013,0.01828843,-0.02247039,-0.0074062147,-0.0056542917,0.0011518132,0.018915161,0.10475317025956223,0.2316781933807636,90.50095019968663,0
1729710287369105,-0.08270072,0.053092662,-1.9804198,0.018214302,-0.022424996,-0.007117219,-0.0046329806,0.0028371576,0.018062243,0.10139578642697872,0.22864033551504442,90.49387368127188,0
1729710287377105,-0.08252765,0.052995715,-1.9806225,0.01815776,-0.022408022,-0.006974645,-0.0070678066,0.0021217857,0.01782173,0.09980503126864054,0.22708274658214167,90.49037643254223,0
1729710287389105,-0.08235099,0.052895162,-1.9808211,0.018107343,-0.022386733,-0.006827829,-0.004201351,0.0017740143,0.012234668,0.0983279617222234,0.22541790167226852,90.48686546629787,0
1729710287393105,-0.082176685,0.05279252,-1.9810246,0.01806019,-0.022355454,-0.0066819564,-0.011788215,0.00781985,0.036468145,0.09688204288567177,0.2237559251204332,90.4835116201669,0
1729710287409105,-0.082545556,0.052620787,-1.9807929,0.017683972,-0.022205204,-0.006138378,-0.023513682,0.009390642,0.033973657,0.09427731513729079,0.22027955951691994,90.47667427479725,0
1729710287417105,-0.08272165,0.05253237,-1.9806813,0.01748646,-0.022131387,-0.005862009,-0.024688894,0.009227078,0.03454613,0.09330940006503462,0.21846738498936283,90.4731838028302,0
1729710287425105,-0.082892396,0.05244224,-1.9805722,0.017313424,-0.022066925,-0.005569316,-0.0216295,0.008057803,0.036586598,0.09249640492385947,0.21690039221402832,90.46960459822773,0
1729710287433105,-0.08305789,0.052350435,-1.9804654,0.017142426,-0.022004612,-0.005276642,-0.021374783,0.007789116,0.03658427,0.0920036235966439,0.21548355810217187,90.46608003431687,0
1729710287449105,-0.08337405,0.052162062,-1.9802684,0.016783275,-0.021878667,-0.004784631,-0.022446968,0.007871538,0.03075067,0.09079756379105701,0.21377270377336574,90.45925638120707,0
1729710287457105,-0.08352496,0.052065656,-1.9801779,0.016615065,-0.021803927,-0.004570702,-0.021026235,0.009342562,0.026741123,0.09003181912391164,0.21335747341207364,90.45590939937267,0
1729710287465105,-0.083665475,0.05196749,-1.9800897,0.016461205,-0.021750383,-0.004393784,-0.01923251,0.006692949,0.022114778,0.08905546470239303,0.21311958908240172,90.45265123568123,0
1729710287473105,-0.08380147,0.05186793,-1.9800037,0.01632478,-0.021682044,-0.004221166,-0.017052982,0.0085423235,0.02157723,0.08806997749696369,0.2129819037898598,90.44947508643436,0
1729710287489105,-0.08406037,0.051664926,-1.9798386,0.016051352,-0.021571517,-0.0039145076,-0.017089304,0.0069079683,0.019166153,0.08609767710967232,0.21265720076009353,90.4431706770885,0
1729710287497105,-0.0841836,0.051561404,-1.9797595,0.015909513,-0.021526342,-0.0037766462,-0.01772982,0.005646841,0.017232668,0.08512272356458282,0.2125126185340006,90.44016519919406,0
1729710287505105,-0.08430284,0.051456623,-1.9796826,0.01577772,-0.021478644,-0.003680227,-0.016474165,0.0059623267,0.012052391,0.08414864889111437,0.2125371380145806,90.4372007808498,0
1729710287521105,-0.084534936,0.05098821,-1.9799608,0.015421776,-0.021591127,-0.0036430843,-0.0222465,-0.0070302044,0.0023214233,0.0815585663312129,0.2134506554477752,90.43141545258953,0
1729710287529105,-0.08464089,0.050628554,-1.980295,0.015253032,-0.021748066,-0.0036506974,-0.021093057,-0.019617377,-0.000951637,0.08010708058877082,0.2145839411475704,90.424660230816,0
1729710287537105,-0.0847441,0.050271448,-1.9806206,0.015097297,-0.021922745,-0.003682267,-0.019466853,-0.021834856,-0.0039461884,0.07836477812736735,0.2156071160313638,90.41819176956379,0
1729710287545105,-0.084844634,0.049916774,-1.9809381,0.014947374,-0.022085153,-0.0037102585,-0.018740306,-0.020300968,-0.0034989496,0.07631005033691499,0.21641340424866376,90.41178492778683,0
1729710287561105,-0.085037656,0.049214374,-1.9815493,0.014667222,-0.022402527,-0.0037730804,-0.017509503,-0.01983589,-0.0039263684,0.07160845802622576,0.21707817851061445,90.3992579091708,0
1729710287569105,-0.085130334,0.04886662,-1.981849,0.014526518,-0.022539223,-0.003784349,-0.017588027,-0.017086975,-0.0014085671,0.06905751769136967,0.216898431188633,90.39315156319704,0
1729710287577105,-0.08522047,0.048521042,-1.982141,0.014392033,-0.022689743,-0.0037787852,-0.016810605,-0.018815044,0.0006954651,0.06648894577923196,0.21627880053767082,90.38699738265653,0
1729710287585105,-0.0853081,0.04817744,-1.9824256,0.01426404,-0.02284576,-0.003765873,-0.01599919,-0.019502128,0.0016140401,0.06398507054707081,0.21524289895555315,90.38110952993857,0
1729710287601105,-0.085475735,0.047496025,-1.9829733,0.014043454,-0.023120714,-0.003751,-0.0137866,-0.017184647,0.00092956173,0.059670065944581054,0.21210204397296212,90.36942264318205,0
1729710287609105,-0.08554517,0.04716325,-1.9832369,0.013941417,-0.023260137,-0.0037238735,-0.012754578,-0.01742784,0.0033907997,0.05804105846824463,0.20991294015841624,90.36356215958584,0
1729710287617105,-0.08561221,0.046832204,-1.9834938,0.013857051,-0.023376819,-0.0036928547,-0.01054583,-0.014585209,0.0038773576,0.05643926568064298,0.20727444194043304,90.35746255931014,0
1729710287625105,-0.08567682,0.046502825,-1.983744,0.013771105,-0.023497181,-0.003651248,-0.010743271,-0.015045282,0.005200825,0.05483379485873078,0.20434891430618332,90.35139034508401,0
1729710287641105,-0.08579898,0.04584917,-1.9842358,0.013621967,-0.023684243,-0.0035336774,-0.009321083,-0.011691357,0.007348164,0.050885153767222656,0.19792553537594973,90.3396761351832,0
1729710287649105,-0.08617447,0.045306254,-1.9843663,0.013481064,-0.023830622,-0.003446266,-0.01761294,-0.018297462,0.010926422,0.048454695104168014,0.19470196065012418,90.33389764017868,0
1729710287657105,-0.0865396,0.044770222,-1.9844934,0.013348625,-0.023974758,-0.0033573667,-0.01655484,-0.0180169,0.011112424,0.04590749660602591,0.19149276737077886,90.32802342656699,0
1729710287665105,-0.08689458,0.04424084,-1.984617,0.013229622,-0.024102608,-0.0032515519,-0.0148754325,-0.015981263,0.013226846,0.04350611508353711,0.1880227587771644,90.32228591563344,0
1729710287673105,-0.08723969,0.043717977,-1.9847372,0.0130945975,-0.024228787,-0.0031280355,-0.016878009,-0.015772413,0.015439552,0.041101786351679326,0.184344348982351,90.31664400858169,0
1729710287689105,-0.08790437,0.042686682,-1.984972,0.012834528,-0.024465922,-0.002905235,-0.016254313,-0.01482095,0.013925033,0.03711139761259237,0.1761325933529545,90.30579046181117,0
1729710287697105,-0.08822291,0.04218042,-1.9850869,0.012706335,-0.024563843,-0.0028143518,-0.016024219,-0.012240139,0.011360388,0.03530992317338774,0.1716687907047496,90.30086572490652,0
1729710287705105,-0.08853263,0.041680377,-1.9851986,0.012583505,-0.024646245,-0.0027012338,-0.015353667,-0.010300194,0.014139746,0.033451342050202,0.1671393416298225,90.29607761078005,0
1729710287721105,-0.08912581,0.040698722,-1.9854121,0.012396964,-0.024778452,-0.0024373722,-0.011658819,-0.008262927,0.01649135,0.0294948045914736,0.15859420683870198,90.28708196711598,0
1729710287729105,-0.08940976,0.040216915,-1.9855142,0.012298179,-0.024834579,-0.0023283637,-0.012348172,-0.0070158853,0.013626063,0.027464378391798175,0.1543743614918287,90.28282662644325,0
1729710287737105,-0.08968547,0.039741054,-1.9856131,0.012219731,-0.024878345,-0.002229521,-0.009806011,-0.005470821,0.012355332,0.025538058702797437,0.15018746742217495,90.27881034230748,0
1729710287745105,-0.08995311,0.039271004,-1.9857093,0.012140691,-0.024918614,-0.0021330777,-0.009879935,-0.005033565,0.0120554175,0.02362836324031314,0.14583543511949548,90.27494437227227,0
1729710287753105,-0.090212874,0.038806826,-1.9858075,0.012067275,-0.02492585,-0.0020319258,-0.00917702,-0.000904547,0.012643984,0.02173328136053562,0.14146037838000525,90.27125593793637,0
1729710287769105,-0.09047497,0.038345147,-1.9859028,0.011996819,-0.024939548,-0.0019237959,-0.004403526,-0.0008561182,0.00675812,0.01979043675207223,0.1368887005006702,90.26786807947606,0
1729710287781105,-0.09088437,0.037845716,-1.986313,0.011904481,-0.024752941,-0.0016775655,-0.00769482,0.015550603,0.020519199,0.016206041320816038,0.12762875357433923,90.26148851327449,0
1729710287789105,-0.0910342,0.03779913,-1.9866213,0.011873261,-0.02456558,-0.0015700641,-0.0039024742,0.0234202,0.013437674,0.014470706226980242,0.12271308671325605,90.2603956295215,0
1729710287797105,-0.09117882,0.03774959,-1.9869204,0.011866813,-0.02436668,-0.0014602793,-0.00080605963,0.024862353,0.013723096,0.012833502541347665,0.11762028903045862,90.2595827661138,0
1729710287813105,-0.09131838,0.037697423,-1.9872105,0.011838096,-0.024153046,-0.0013440433,-0.0017947749,0.013352138,0.0072647524,0.01114239484970979,0.11248113494663256,90.2589406409519,0
1729710287821105,-0.09145294,0.037642796,-1.9874948,0.0118368305,-0.02394488,-0.0012007607,-0.00015820841,0.026020685,0.017910322,0.00943264142757882,0.10729966653716916,90.25851032724472,0
1729710287833105,-0.0915826,0.037585877,-1.9877704,0.011816877,-0.023736566,-0.0010698239,-0.0016627988,0.017359542,0.010911404,0.007731179555815199,0.10225206825782246,90.25832583670318,0
1729710287837105,-0.09170737,0.03752692,-1.9880375,0.0118288975,-0.02349872,-0.00092152215,0.003005145,0.059461683,0.037075426,0.006053844088764218,0.09730483601083455,90.25829850078851,0
1729710287845105,-0.091838844,0.037456386,-1.988296,0.011814956,-0.02327446,-0.0007705628,-0.0017427373,0.028032342,0.018869918,0.004102291026026323,0.09263373392261999,90.25840776745468,0
1729710287861105,-0.09208752,0.03731079,-1.9887887,0.011785069,-0.022830078,-0.00046716694,-0.0018679419,0.0277739,0.01896224,-0.0003880538787652834,0.08390291418497701,90.26107830057245,0
1729710287869105,-0.092204876,0.03723604,-1.9890233,0.01178625,-0.022610769,-0.00033765455,0.00014773104,0.027413711,0.016189048,-0.0029867631944398404,0.07990049261255543,90.26261512540181,0
1729710287877105,-0.09231755,0.037160188,-1.9892503,0.011799352,-0.02237061,-0.00018018752,0.0016377306,0.030019784,0.019683378,-0.00578234058187525,0.07634526245235308,90.2643158261084,0
1729710287885105,-0.09242566,0.037083447,-1.9894719,0.011807074,-0.022137888,-2.8842796e-05,0.0009651994,0.029090324,0.01891809,-0.008834416766375891,0.07298668749845004,90.26621461570844,0
1729710287893105,-0.09252921,0.0370059,-1.9896861,0.011831113,-0.021898521,0.00013627888,0.003004912,0.029920831,0.020640207,-0.012161144382506732,0.06997745321824915,90.26816804590176,0
1729710287913105,-0.09260742,0.036218613,-1.9906645,0.011959223,-0.021708185,0.000316058,0.006405497,0.009516813,0.008988956,-0.01937586741065889,0.06493360181290807,90.27260770283229,0
1729710287917105,-0.092584684,0.035522316,-1.9914149,0.012057995,-0.021749888,0.00032715342,0.024693085,-0.01042569,0.0027738567,-0.02303923215094245,0.0635657755303027,90.2724232572229,0
1729710287925105,-0.092566684,0.034788627,-1.9922107,0.012160052,-0.0218225,0.00031467996,0.012757023,-0.009076437,-0.0015591831,-0.026648011858191063,0.06279809915342978,90.27244374756897,0
1729710287941105,-0.092519745,0.033392344,-1.9936957,0.012388213,-0.02191083,0.00033401675,0.014260061,-0.005520647,0.0012085492,-0.03386160558071116,0.06290478757286895,90.27266234375982,0
1729710287949105,-0.09249134,0.032724287,-1.9943928,0.012517576,-0.021940608,0.00036204772,0.016170437,-0.0037222633,0.0035038718,-0.0374832336471442,0.06336431817673206,90.27300386581794,0
1729710287957105,-0.09245986,0.032073457,-1.9950639,0.012653139,-0.021962162,0.0003929456,0.016945414,-0.002694316,0.0038622345,-0.0411144434575679,0.06420512565675898,90.27336587824519,0
1729710287965105,-0.09242545,0.03143827,-1.9957111,0.012794382,-0.021966988,0.00046016992,0.017655315,-0.0006032642,0.00840304,-0.0447615815906464,0.06508984249074995,90.27376204127327,0
1729710287973105,-0.0923882,0.030817486,-1.9963362,0.0129412245,-0.021957528,0.00055955653,0.01835532,0.0011825468,0.012423326,-0.04839239803998948,0.06572058819320531,90.27424696313494,0
1729710287989105,-0.09228515,0.02961315,-1.9975249,0.013262913,-0.021958508,0.00087390863,0.020105507,-6.123446e-05,0.019647006,-0.05502905860309796,0.06558517826999233,90.27531935672259,0
1729710287997105,-0.09221958,0.029027794,-1.9980872,0.013456962,-0.021953253,0.0010747313,0.02425618,0.0006568152,0.025102839,-0.057825394532261945,0.06485881652961062,90.27611846370407,0
1729710288005105,-0.092151545,0.028453542,-1.9986314,0.013654835,-0.021909434,0.0013090097,0.024734063,0.0054773404,0.029284798,-0.06008705800922922,0.0634689522032362,90.27695858417468,0
1729710288013105,-0.09208098,0.02788983,-1.9991578,0.013866347,-0.021891475,0.0015533429,0.026439082,0.002244953,0.030541645,-0.06180522053159178,0.06143867059609388,90.27770988005278,0
1729710288029105,-0.09215362,0.02711806,-1.9994439,0.014293597,-0.021689273,0.0023165538,0.026703112,0.012637581,0.04770068,-0.06413918021692845,0.05560515239092234,90.27939008740651,0
1729710288037105,-0.09229052,0.026901027,-1.9992232,0.014491926,-0.021527868,0.0028185393,0.024791107,0.020175705,0.06274818,-0.06479784644745404,0.051700913830191306,90.28012090915449,0
1729710288049105,-0.09241882,0.0266851,-1.9990047,0.014678331,-0.021363785,0.003345055,0.015533762,0.0136735225,0.043876313,-0.0650359319763033,0.047452671312312546,90.28088586461175,0
1729710288053105,-0.09253872,0.02647016,-1.9987879,0.014884435,-0.021210693,0.0039020039,0.051525883,0.038273167,0.1392372,-0.06488553338851057,0.04294853034284299,90.28178065908627,0
1729710288069105,-0.09275284,0.026035892,-1.9983616,0.015287926,-0.02083612,0.0050335075,0.025218235,0.023410771,0.070718974,-0.06358381495521594,0.033480755453489525,90.28376823715877,0
1729710288077105,-0.09284793,0.02582109,-1.9981498,0.015511333,-0.020624205,0.005606463,0.027925823,0.026489373,0.07161946,-0.06235811297832079,0.02874414863148606,90.28510695483415,0
1729710288085105,-0.09293533,0.02560804,-1.9979386,0.015706675,-0.020401718,0.0061226455,0.024417764,0.02781092,0.06452278,-0.06097140146422056,0.024151001004065645,90.28645250246177,0
1729710288093105,-0.093015336,0.025396988,-1.9977285,0.015900712,-0.020153912,0.006597334,0.024254665,0.030975787,0.05933607,-0.05949767854535612,0.01973435123327045,90.28784589496657,0
1729710288113105,-0.09315377,0.024981622,-1.9973115,0.016293155,-0.019630594,0.0074260216,0.019622128,0.02616588,0.041434377,-0.056064709507504196,0.011129011252515484,90.29071458969487,0
1729710288117105,-0.093212575,0.024777558,-1.9971058,0.01648388,-0.019352965,0.007785332,0.047681384,0.06940728,0.089827575,-0.05390357258007241,0.007175285497098809,90.2921352679915,0
1729710288125105,-0.09326466,0.024576021,-1.9969016,0.016677467,-0.019077022,0.008107972,0.02419832,0.03449293,0.04033005,-0.0516395460615065,0.003348973820075104,90.2936652276752,0
1729710288133105,-0.093290836,0.024375577,-1.9966991,0.016901033,-0.018785046,0.008392749,0.027945729,0.0364969,0.035597127,-0.04943486023214033,-0.00015034753807309482,90.29514058152938,0
1729710288149105,-0.09332408,0.023982892,-1.9962994,0.017358111,-0.018222462,0.008868748,0.028567387,0.0351615,0.029749934,-0.045440275392730135,-0.005932884751091223,90.29827568447394,0
1729710288157105,-0.09325641,0.02432193,-1.9965646,0.017658511,-0.017648993,0.008949511,0.037549995,0.07168366,0.010095303,-0.043059885141604824,-0.008245752574068404,90.29983298189995,0
1729710288169105,-0.093183644,0.024653103,-1.9968203,0.017952457,-0.01708381,0.008983525,0.024495492,0.047098536,0.0028345578,-0.04065193720203769,-0.010493114959873377,90.30465517206733,0
1729710288173105,-0.09310582,0.024976796,-1.9970671,0.018261323,-0.01650177,0.008991332,0.07721642,0.1455103,0.0019515863,-0.03811089822949192,-0.012392924778371445,90.30954564495914,0
1729710288189105,-0.09293551,0.025603618,-1.997529,0.018824594,-0.015338674,0.008954457,0.03520446,0.07269345,-0.0023046741,-0.03300242244413446,-0.015085900359095936,90.31927883590278,0
1729710288201105,-0.09284338,0.025907477,-1.9977481,0.019090826,-0.014755309,0.008911361,0.022185966,0.048613798,-0.0035913351,-0.030697147188310122,-0.015865899319631983,90.32420345858895,0
1729710288205105,-0.09274676,0.026205363,-1.99796,0.019348556,-0.014191293,0.008852168,0.06443262,0.14100386,-0.014798249,-0.028363800691291824,-0.01615972086238992,90.32908715898729,0
1729710288221105,-0.09252872,0.026792184,-1.9983631,0.019875482,-0.013061563,0.008704696,0.032932844,0.07060816,-0.009217008,-0.023569415163352835,-0.014960117151822144,90.33852663869457,0
1729710288229105,-0.092413366,0.027077587,-1.998555,0.02013656,-0.012521384,0.008611581,0.032634705,0.06752228,-0.011639319,-0.020966151010026017,-0.013252379709460346,90.34304830650568,0
1729710288237105,-0.09229387,0.027357882,-1.9987375,0.020397367,-0.011986115,0.0085246125,0.032600947,0.06690866,-0.010871095,-0.018387276586917516,-0.01071789588899981,90.34757680441955,0
1729710288249105,-0.09187593,0.02781716,-1.9990165,0.02103809,-0.010552837,0.008470465,0.053393655,0.11943987,-0.004512258,-0.010311122598538619,0.0013976995795802205,90.35697530294948,0
1729710288257105,-0.091743454,0.028086726,-1.9991807,0.021280043,-0.01004814,0.008503135,0.030244,0.06308709,0.004083733,-0.008057880602138199,0.006353969834531652,90.36280157517352,0
1729710288265105,-0.09160716,0.028352052,-1.9993386,0.021528281,-0.009555013,0.008537528,0.031029804,0.061640862,0.0042991014,-0.005895133166911255,0.011860500181460506,90.36801995131107,0
1729710288273105,-0.091467075,0.028613267,-1.9994905,0.02177287,-0.009076103,0.0085944235,0.030573688,0.059863783,0.007111928,-0.0038344719246788,0.01763199188091884,90.37291727101699,0
1729710288289105,-0.09114871,0.02900701,-1.998748,0.022346789,-0.008222652,0.0091170035,0.03586989,0.053340685,0.032661248,0.00011508770071809141,0.030338427720528485,90.38118883265356,0
1729710288297105,-0.090983674,0.029199813,-1.998385,0.022606302,-0.0078051505,0.0093848435,0.032439128,0.052187648,0.033479996,0.002019762123479002,0.03701044313847439,90.38459041940665,0
1729710288305105,-0.090814926,0.029390099,-1.9980277,0.022861732,-0.0074075866,0.009638982,0.031928763,0.049695488,0.031767294,0.003918490360182756,0.043824032112396986,90.38793727473141,0
1729710288321105,-0.09046702,0.029763324,-1.9973298,0.023333982,-0.0066343565,0.010079636,0.02951559,0.04832688,0.027540896,0.008993174424872616,0.05767689518695566,90.39439205116206,0
1729710288329105,-0.09028809,0.029946245,-1.9969891,0.02356942,-0.0062591447,0.010253954,0.029429791,0.04690146,0.021789687,0.012246263550252828,0.06464862132572888,90.39728821967996,0
1729710288337105,-0.090105906,0.030126853,-1.9966542,0.023806896,-0.005890764,0.010388346,0.029684508,0.046047613,0.01679908,0.01589489191853471,0.07160544072176414,90.40016380412862,0
1729710288345105,-0.089920536,0.03030507,-1.9963248,0.024033006,-0.0055413274,0.0104991635,0.028263776,0.04367955,0.013852142,0.019789028296640483,0.07872434491679318,90.40297111239008,0
1729710288357105,-0.089725554,0.030482717,-1.9960008,0.024235874,-0.0051852684,0.010576733,0.016905678,0.029671587,0.006464155,0.023835166096623082,0.0857888755570559,90.40559413130228,0
1729710288373105,-0.08932735,0.030830927,-1.9953698,0.024661107,-0.0045591607,0.010697206,0.026577035,0.039131727,0.0075295097,0.03178922761793538,0.09907134296967147,90.41001349759718,0
1729710288377105,-0.0891243,0.031001344,-1.995063,0.024852969,-0.004261368,0.010685801,0.047965437,0.074448176,-0.0028512438,0.03581510771521377,0.10527056325384901,90.4121241709155,0
1729710288385105,-0.0889188,0.031169381,-1.9947621,0.025035972,-0.003966503,0.010611062,0.022875376,0.036858138,-0.00934233,0.03978259583310117,0.11122552500502322,90.41409826934593,0
1729710288405105,-0.08808014,0.031561114,-1.9937227,0.025624946,-0.0033348126,0.010562417,0.0294487,0.031584512,-0.002432242,0.04796419088841535,0.12275753640569811,90.41767064399133,1
1729710288409105,-0.08747196,0.031773902,-1.993023,0.025984073,-0.0029971527,0.010574828,0.08978182,0.08441496,0.003102701,0.051971807323106155,0.1283921892020604,90.4212499505273,1
1729710288417105,-0.08688235,0.03197607,-1.9923605,0.026322614,-0.0026684485,0.010563983,0.042317666,0.04108803,-0.0013556563,0.056134872824098896,0.13394536099499652,90.4247061678974,1
1729710288425105,-0.08631623,0.03215841,-1.991729,0.026640903,-0.0023547062,0.010558813,0.039786097,0.03921779,-0.0006462214,0.060426306724452615,0.13957925591577913,90.42805998665676,1
1729710288433105,-0.085762896,0.032334115,-1.9911244,0.026927657,-0.0020732568,0.010540679,0.035844278,0.035181176,-0.0022667227,0.06484928120604197,0.14526092364315651,90.43260918850412,1
1729710288449105,-0.08468756,0.03266941,-1.9899665,0.027592778,-0.0016721302,0.015498969,0.041570045,0.02507041,0.3098931,0.09612648560860489,0.13492879088068238,90.43392039623934,1
1729710288457105,-0.08416109,0.032828953,-1.9893388,0.028117454,-0.0016842735,0.027303807,0.06558443,-0.0015179102,1.4756048,0.19488906057677408,0.04681828392793948,90.42317515864154,1
1729710288465105,-0.08363995,0.03298312,-1.9886167,0.028601404,-0.0016670215,0.042958487,0.060493823,0.0021564919,1.9568348,0.39521353867102366,-0.14127788370761912,90.40312231002403,1
1729710288473105,-0.08312415,0.033133324,-1.987774,0.028912395,-0.0014500432,0.06108823,0.03887387,0.027122295,2.266218,0.7118131473551935,-0.43926342689732734,90.3723476808297,1
1729710288489105,-0.08211508,0.033432834,-1.9856536,0.028446708,7.6232966e-05,0.103331454,-0.029105458,0.09539225,2.6402013,1.7144067316360228,-1.3413569539092967,90.26856933599167,1
1729710288497105,-0.081627645,0.03358967,-1.9843408,0.027491836,0.0015590482,0.12798528,-0.119358994,0.1853519,3.0817285,2.397394726754843,-1.9155395181651786,90.19090151962246,1
1729710288509105,-0.08116305,0.03375781,-1.9828265,0.026003545,0.003530195,0.15663669,-0.12402423,0.16426224,2.3876169,3.191386509764647,-2.5497120319025948,90.09336552701414,1
1729710288513105,-0.08071836,0.033939984,-1.9810762,0.024025759,0.005892477,0.1896073,-0.49444658,0.59057045,8.242655,4.085355652932251,-3.229049433747028,89.97435290289991,1
1729710288529105,-0.07932361,0.03427372,-1.9754723,0.019409893,0.011684858,0.2700571,-0.28849158,0.3620238,5.0281124,6.124379227795021,-4.671326459096559,89.67107362777756,1
1729710288537105,-0.0786743,0.034475647,-1.9721944,0.016668884,0.01484485,0.31675735,-0.3426261,0.3949989,5.8375297,7.244466838326353,-5.412049113644683,89.48603885440052,1
1729710288545105,-0.07805903,0.03470237,-1.9685532,0.013752694,0.018066272,0.3673584,-0.3645237,0.40267777,6.325129,8.416249757689673,-6.154554363914959,89.27799067604172,1
1729710288557105,-0.07747853,0.03495425,-1.9645181,0.010714233,0.021323858,0.4212722,-0.25320512,0.27146548,4.492817,9.629893729621426,-6.893213960358014,89.04738305927616,1
1729710288569105,-0.076424815,0.035535056,-1.9551789,0.004205843,0.028008174,0.53567284,-0.54236585,0.5570263,9.533388,12.166778334989916,-8.342133613440533,88.52087757151118,1
1729710288577105,-0.07595345,0.03586511,-1.9498441,0.00071378634,0.031482704,0.595147,-0.43650705,0.43431622,7.434271,13.491976307846576,-9.041605669067538,88.2272560205679,1
1729710288585105,-0.07552045,0.036222618,-1.9440538,-0.0029529892,0.035070404,0.65565145,-0.45834693,0.44846255,7.563054,14.859667789304924,-9.715629418160407,87.91568855024155,1
1729710288601105,-0.074822634,0.03700562,-1.9310675,-0.011019411,0.04258514,0.77898824,-0.5041513,0.46967083,7.708549,17.735795242682602,-10.962130823596791,87.24965135019217,1
1729710288609105,-0.07453712,0.037442356,-1.9238594,-0.01542388,0.046519395,0.8415723,-0.5505586,0.49178207,7.8230047,19.24904303052449,-11.524658218072688,86.90039738005107,1
1729710288617105,-0.074296184,0.037910383,-1.9161677,-0.020074788,0.050552223,0.90470624,-0.58136356,0.5041035,7.891744,20.814683157447273,-12.042658227366493,86.54290421439767,1
1729710288629105,-0.07410187,0.03841035,-1.9079881,-0.025035352,0.054656077,0.9683058,-0.41338024,0.34198785,5.2999654,22.433873071380688,-12.51475099661722,86.17961091873951,1
1729710288641105,-0.07386127,0.039507914,-1.8901473,-0.03573801,0.06302312,1.096926,-0.8918882,0.6972536,10.718346,25.83708546908597,-13.318479773078872,85.4448242069742,1
1729710288649105,-0.07129933,0.039481662,-1.8799483,-0.039980695,0.06677006,1.1621144,-0.53033555,0.4683677,8.148551,27.62183649159473,-13.648343389417224,85.0785998402417,1
1729710288657105,-0.06884092,0.03949882,-1.8692565,-0.044529483,0.07056132,1.2277538,-0.5685985,0.4739072,8.204922,29.46020894914456,-13.926696107926393,84.71334479925878,1
1729710288665105,-0.06649376,0.039559737,-1.8580676,-0.049418587,0.074366696,1.2938383,-0.61113805,0.47567204,8.260563,31.35168906952935,-14.156637578091836,84.35567598230405,1
1729710288673105,-0.0642512,0.03966347,-1.8463774,-0.054590233,0.078184344,1.3603383,-0.64645565,0.47720593,8.312508,33.29453196761469,-14.340021769348843,84.0091928427368,1
1729710288689105,-0.060082138,0.039997768,-1.8214763,-0.06584566,0.08579997,1.4946095,-0.7034642,0.4759766,8.391946,37.3291490083122,-14.572162597260771,83.35423294157229,1
1729710288697105,-0.058156967,0.040227205,-1.8082572,-0.071911775,0.08957443,1.5623839,-0.7582642,0.47180706,8.471802,39.418133275175215,-14.6245897871242,83.04970689274558,1
1729710288705105,-0.056338914,0.04049744,-1.7945243,-0.078258276,0.093332045,1.630584,-0.7933126,0.46970227,8.525014,41.5527124406134,-14.636752593066937,82.76368568275387,1
1729710288713105,-0.054628607,0.04080791,-1.7802695,-0.08488106,0.09706697,1.699169,-0.82784796,0.46686548,8.57313,43.73071557101936,-14.610341877996039,82.49834479171736,1
1729710288721105,-0.053026654,0.04115797,-1.7654887,-0.09177261,0.10073166,1.7682021,-0.8614435,0.45808682,8.6291275,45.94936429343587,-14.54784303239698,82.255493733735,1
1729710288737105,-0.050150793,0.041972887,-1.7343333,-0.106400356,0.10784287,1.9075404,-0.91423416,0.4444504,8.708648,50.49858264416564,-14.32684952777504,81.84035433840295,1
1729710288745105,-0.04887848,0.042436127,-1.7179506,-0.11412419,0.111314274,1.9778339,-0.9654788,0.4339255,8.786678,52.825835258544714,-14.175100951043126,81.66832108591323,1
1729710288753105,-0.04775126,0.042933952,-1.701026,-0.122076444,0.114685155,2.0485363,-0.9940322,0.4213601,8.837804,55.18701223123209,-13.999815579208782,81.52016574333011,1
1729710288761105,-0.046734903,0.04346674,-1.6835557,-0.13032076,0.11799057,2.1196504,-1.0305392,0.4131766,8.889257,57.58175591142531,-13.771925681903822,81.35584301627064,1
1729710288777105,-0.040826846,0.044864435,-1.6447372,-0.14481995,0.124608815,2.2637122,-0.90619916,0.41364038,9.003862,62.464687812262845,-13.25507169992113,81.10253165427923,1
1729710288789105,-0.038099937,0.04561008,-1.624535,-0.15252401,0.12778889,2.3363545,-0.6420053,0.26500598,6.0535274,64.95033856896009,-12.970145337436662,81.01557910169385,1
1729710288793105,-0.035524204,0.046385843,-1.6037978,-0.16054437,0.13088128,2.4094217,-2.005089,0.7730983,18.266796,67.46413476569344,-12.672038460710636,80.95667502755767,1
1729710288809105,-0.030826207,0.048024617,-1.5606998,-0.1774467,0.13682307,2.556843,-1.0563954,0.37136206,9.213835,72.57162918407322,-12.04666002433307,80.92019507496373,1
1729710288817105,-0.028704291,0.04888632,-1.5383297,-0.18629669,0.13966697,2.6312256,-1.1062491,0.35548767,9.297817,75.16421591578018,-11.724564799677106,80.9402480669219,1
1729710288829105,-0.026739636,0.04976746,-1.5154148,-0.19540101,0.14240421,2.7060814,-0.7586939,0.22810325,6.2379837,77.78239390105189,-11.399052771737866,80.98431295497595,1
1729710288845105,-0.023265282,0.05160871,-1.4679031,-0.21443562,0.14758928,2.857187,-1.189663,0.3240667,9.444102,83.09323748979395,-10.739745539297113,81.13784201885213,1
1729710288849105,-0.02175584,0.05256743,-1.4432966,-0.22428864,0.15004455,2.9334888,-2.463255,0.6138161,19.075453,85.78563885607308,-10.411563498802295,81.24885595579426,1
1729710288857105,-0.020398203,0.053550582,-1.418116,-0.2343829,0.1524081,3.0103045,-1.2617818,0.29544345,9.601951,88.50195250865828,-10.086437277631733,81.38203644576832,1
1729710288865105,-0.019192506,0.054557364,-1.3923563,-0.2447085,0.1546675,3.087643,-1.2906994,0.28242543,9.667307,91.2423415735329,-9.765866564030913,81.536450496774,1
1729710288873105,-0.018138904,0.05558699,-1.3660121,-0.2552699,0.15681747,3.1655436,-1.3201777,0.26874617,9.73758,94.00715944063724,-9.451237039766886,81.71128519645781,1
1729710288889105,-0.016488785,0.05771138,-1.3115569,-0.27707475,0.1608061,3.3231125,-1.3628024,0.2492899,9.848058,99.61445307577169,-8.84475526772884,82.12159937773713,1
1729710288897105,-0.01528728,0.059761584,-1.2840973,-0.28790855,0.16329494,3.402569,-1.3542249,0.31110457,9.932071,102.45894782048804,-8.5559191748922,82.35822371599268,1
1729710288905105,-0.014314905,0.061785694,-1.2560148,-0.29881254,0.16573675,3.4826815,-1.362998,0.30522606,10.014057,105.32979253930954,-8.271810682544503,82.61021646097065,1
1729710288913105,-0.01350284,0.06381379,-1.2273037,-0.30985636,0.16805407,3.563483,-1.3804771,0.28966552,10.100185,108.22094353715862,-7.961833168366234,82.85367069801518,1
1729710288933105,-0.012356298,0.06788064,-1.1679726,-0.3322221,0.17226422,3.7271771,-1.1182874,0.21050721,8.184708,114.08980821431823,-7.395126931850639,83.41068036943255,1
1729710288937105,-0.012020394,0.069918305,-1.1373403,-0.34353438,0.1741673,3.8101525,-2.828069,0.4757717,20.743845,117.07017297315359,-7.142441747688446,83.72303059240349,1
1729710288945105,-0.011841459,0.0719582,-1.106057,-0.35488167,0.17591815,3.8939135,-1.4184116,0.2188552,10.470121,120.08475316913912,-6.913037145496751,84.05693754926342,1
1729710288961105,-0.01195054,0.07604236,-1.0415044,-0.37763748,0.17898156,4.063946,-1.4222375,0.19146314,10.627016,126.23390025340017,-6.536714755081343,84.79312886462179,1
1729710288969105,-0.012235468,0.07808531,-1.0082207,-0.3889672,0.18027464,4.150318,-1.4162138,0.16163474,10.796546,129.37685373903906,-6.399096703812554,85.19854720427553,1
1729710288977105,-0.012645423,0.0801335,-0.9742546,-0.4003099,0.18133229,4.2377434,-1.417838,0.13220683,10.928153,132.57149451092295,-6.303708182765035,85.63200146591736,1
1729710288985105,-0.0132063925,0.08217921,-0.93959767,-0.41151047,0.1821883,4.32621,-1.4000721,0.107001506,11.05833,135.82357563826807,-6.270714586512395,86.10318822257271,1
1729710289001105,-0.014772662,0.086258344,-0.86817354,-0.43364164,0.18321934,4.506888,-1.3831984,0.06444007,11.292368,142.51852685955598,-6.383620637208226,87.13084243330974,1
1729710289009105,-0.015774727,0.08828882,-0.83138615,-0.44474635,0.18332583,4.5996504,-1.3880877,0.013310461,11.595308,145.98379253877755,-6.551678159834602,87.6885084532534,1
1729710289017105,-0.020174598,0.0909222,-0.7933477,-0.4577166,0.18344457,4.6942296,-1.6212835,0.014843418,11.822402,149.54678231251265,-6.815248493186802,88.27614088692167,1
1729710289025105,-0.024652906,0.09353226,-0.75457275,-0.46993092,0.18314025,4.790171,-1.5267878,-0.038040802,11.992692,153.220645991593,-7.210428442658717,88.90074568510721,1
1729710289033105,-0.02920289,0.096116364,-0.71505195,-0.48098502,0.18240695,4.886996,-1.3817623,-0.09166262,12.10308,156.9982651355359,-7.71987133362307,89.5374837623137,1
1729710289049105,-0.038442127,0.10115181,-0.63374287,-0.4990669,0.1793899,5.0833135,-1.130117,-0.1885658,12.269854,164.8462051069209,-9.058602449141626,90.78134121715593,1
1729710289057105,-0.043131717,0.103617705,-0.59193647,-0.5060581,0.1769291,5.1833906,-0.8739009,-0.30759907,12.509644,168.90631230525608,-9.86946085432538,91.35762931058035,1
1729710289065105,-0.047853597,0.10604289,-0.54934925,-0.5113228,0.1739101,5.2841153,-0.6580874,-0.3773756,12.590587,173.0510538721921,-10.765000464444357,91.88440226472215,1
1729710289073105,-0.052592203,0.1084267,-0.5059911,-0.51430184,0.17115122,5.3814297,-0.37238,-0.34485942,12.164294,177.27331160991807,-11.73422112616962,92.34651615948249,1
1729710289081105,-0.05733236,0.11077208,-0.46188813,-0.5155666,0.16867223,5.4758635,-0.15809385,-0.30987337,11.804222,-178.43377181847342,-12.763035157685144,92.734248656875,1
1729710289097105,-0.06677511,0.11535501,-0.37151694,-0.5143515,0.16407326,5.6592455,0.07594377,-0.28743595,11.461376,-169.6455869325563,-14.946614218428168,93.25838813755276,1
1729710289105105,-0.07146182,0.11759489,-0.32527158,-0.5122701,0.16188046,5.749111,0.26017427,-0.2740994,11.23321,-165.14797847709505,-16.078991004856228,93.38481027507493,1
1729710289121105,-0.08073336,0.12197363,-0.2306985,-0.50552213,0.15744385,5.926395,0.42174754,-0.27728826,11.080235,-155.92603276320202,-18.38652705304331,93.34691331187571,1
1729710289129105,-0.08530654,0.12411297,-0.18238491,-0.50090647,0.15522885,6.01398,0.57695806,-0.27687475,10.948121,-151.191834193636,-19.54728472897237,93.17439270058507,1
1729710289137105,-0.08983035,0.12621926,-0.13339089,-0.49550134,0.15299389,6.100928,0.67564094,-0.2793707,10.868489,-146.3691381675836,-20.700791107773032,92.8936945037981,1
1729710289145105,-0.09437784,0.12816048,-0.08345146,-0.48936915,0.15073624,6.187239,0.7665231,-0.28220564,10.788917,-141.45361719999633,-21.83769334959908,92.50209161333741,1
1729710289161105,-0.10328172,0.13195589,0.018412516,-0.47493628,0.14631413,6.3576584,0.9020548,-0.27638206,10.6512,-131.3276848395776,-24.020365867460168,91.38152206612729,1
1729710289169105,-0.107628666,0.13381103,0.07032627,-0.46677727,0.14418946,6.4416995,1.0198764,-0.2655834,10.505139,-126.1086243246069,-25.044870304849592,90.65318856368384,1
1729710289177105,-0.11191533,0.13562281,0.122886635,-0.45810816,0.14202921,6.5249124,1.0836384,-0.2700314,10.401606,-120.77977057986718,-26.011433988026113,89.81481756222865,1
1729710289185105,-0.116122104,0.1374062,0.17608823,-0.44889304,0.13998029,6.607259,1.1518896,-0.25611556,10.293304,-115.33590751544044,-26.92194548198635,88.86923772527135,1
1729710289201105,-0.124281675,0.1408919,0.2843868,-0.4292186,0.13632947,6.7692065,1.2296531,-0.22817588,10.121733,-104.09901338566934,-28.50256057479473,86.66554416938855,1
1729710289209105,-0.12822892,0.14259681,0.33946967,-0.4189046,0.13479427,6.8487067,1.2892483,-0.19190086,9.937525,-98.30801629791293,-29.153326142463314,85.41763359531602,1
1729710289217105,-0.13348606,0.14631045,0.38343534,-1.1087586,1.1494501,1.0623922,-86.23174,126.83197,-723.2893,-92.54136368326324,-31.17620720330639,83.63104337411939,1
1729710289225105,-0.14826128,0.16428816,0.35823366,-1.9998137,2.5119395,-4.6228943,-111.38188,170.31117,-710.66077,-86.50812239202263,-37.391610530092485,79.95593715732622,1
1729710289233105,-0.16474968,0.18494606,0.32212213,-1.9883397,2.5061014,-4.5435896,1.4342515,-0.7297694,9.913087,-79.3901379421864,-43.268846567702084,75.53067027593606,1
1729710289249105,-0.1971927,0.22604614,0.25167903,-1.9342167,2.490036,-4.3953824,3.3826826,-1.004085,9.262949,-61.5608990340941,-53.841402131091655,63.946273466599585,1
1729710289257105,-0.21308544,0.24655497,0.21730237,-1.9140296,2.4854097,-4.323527,2.5233922,-0.57828426,8.981943,-50.3311593022373,-58.42979284103127,56.15149084484694,1
1729710289265105,-0.22883257,0.26702437,0.18348373,-1.8992039,2.4829197,-4.2517176,1.8532126,-0.31125546,8.976161,-36.94487862224277,-62.32936397323171,46.315354779731514,1
1729710289277105,-0.24424037,0.2874384,0.15103056,-1.8875767,2.4821768,-4.179714,0.9689331,-0.06190936,6.0002804,-20.951331357646623,-65.28792409782422,33.93677602626881,1
1729710289289105,-0.27481046,0.32824895,0.08774208,-1.8690878,2.4854596,-4.0353365,1.5407404,0.27356544,12.031476,17.148434528103998,-66.9812964165615,3.0650725364348808,1
1729710289297105,-0.28999057,0.34867048,0.05691245,-1.8609755,2.4894204,-3.9626417,1.0140389,0.49510595,9.086847,35.846585791050636,-65.3301832091745,-12.10981731836909,1
1729710289305105,-0.30510682,0.369119,0.026630701,-1.8532784,2.4948447,-3.8892508,0.9621381,0.6780326,9.17387,52.03595330560268,-62.213526936742824,-24.89156024571435,1
1729710289321105,-0.3351578,0.41013974,-0.032251604,-1.8385692,2.509401,-3.7393942,0.9193271,0.90977544,9.366035,76.15535745961557,-52.906178033559456,-42.68736262200333,1
1729710289329105,-0.35012707,0.43068552,-0.060831092,-1.8313172,2.5178974,-3.6624246,0.9064972,1.0620356,9.621202,84.97050329376995,-47.22698606734366,-48.64828594776074,1
1729710289337105,-0.36503655,0.45129082,-0.08881894,-1.8239001,2.5270252,-3.5837965,0.9271353,1.1409819,9.828507,92.26639132267763,-41.06531049405436,-53.32577323007538,1
1729710289345105,-0.37988412,0.4719597,-0.11620048,-1.8161395,2.5364923,-3.5033877,0.97008044,1.1833906,10.051101,98.34096622331613,-34.52531153540413,-57.04257529576839,1
1729710289353105,-0.39466643,0.4926937,-0.14296024,-1.8078897,2.5459695,-3.421117,1.03122,1.1846423,10.283827,103.4268834843625,-27.67572809380682,-60.05089158700421,1
1729710289369105,-0.42404342,0.5344403,-0.19494832,-1.7848328,2.5700552,-3.2501643,1.441054,1.5053599,10.684549,111.23881219358987,-13.247035461264353,-64.62051932276428,1
1729710289377105,-0.43847802,0.55547273,-0.21974869,-1.7657932,2.5878265,-3.1611407,2.3799539,2.2214055,11.127948,114.1677623755758,-5.748255502449552,-66.41178713103639,1
1729710289389105,-0.45268923,0.5767143,-0.24384506,-1.7458067,2.6038926,-3.0706503,1.6655425,1.3388395,7.5408616,116.53890828508361,1.8917818937376403,-67.97918366284678,1
1729710289397105,-0.46803167,0.59968853,-0.27005905,-1.7255245,2.6193402,-2.9797945,2.5352685,1.930952,11.356979,118.39881653608815,9.638622072278483,-69.38012713119159,1
1729710289409105,-0.49819854,0.6464355,-0.32012197,-1.6745793,2.6459675,-2.7961054,4.24544,2.218942,15.307426,120.63481993583585,25.32351788395825,-71.81895898361935,1
1729710289417105,-0.5127787,0.67000955,-0.3439601,-1.6466511,2.6553822,-2.7039065,3.491014,1.1768341,11.524856,121.03601626835106,33.209495788083835,-72.97258835168157,1
1729710289433105,-0.5408734,0.71744496,-0.38925862,-1.5844969,2.6661327,-2.521108,3.884643,0.6719082,11.424913,120.43307816250223,48.92622210789213,-75.51746868633593,1
1729710289441105,-0.55435807,0.7412605,-0.41073805,-1.5497237,2.6675415,-2.4314868,4.3466387,0.17610191,11.202633,119.32070090624654,56.692507530600444,-77.10835766218734,1
1729710289449105,-0.56744546,0.76511276,-0.43145588,-1.5126599,2.6666796,-2.3438644,4.6329794,-0.10773539,10.9528,117.4296633930061,64.35705231697436,-79.20885118833569,1
1729710289457105,-0.580123,0.7889844,-0.4514318,-1.4739125,2.6640813,-2.258774,4.8434286,-0.32478568,10.636299,114.15484682146841,71.88610255739601,-82.47029583231816,1
1729710289465105,-0.59238195,0.81286263,-0.47068897,-1.43403,2.6603537,-2.1765633,4.9853024,-0.46595928,10.276347,107.21965764397001,79.20651971161286,-89.21189599167677,1
1729710289473105,-0.6042245,0.8366629,-0.48925,-1.3946267,2.6558168,-2.0972953,4.9254146,-0.5671084,9.908497,79.26888204022764,85.84588205289802,-116.82407016060722,1
1729710289489105,-0.62669253,0.8842453,-0.52437776,-1.3156462,2.647649,-1.9468508,4.936285,-0.510484,9.4027815,-47.425914242662664,78.52362111313495,117.40912121907908,1
1729710289497105,-0.63732326,0.90803474,-0.54098743,-1.2761904,2.6447809,-1.8751153,4.931971,-0.3585219,8.966937,-53.949825526552274,71.7338740896391,111.4194893108271,1
1729710289505105,-0.64755297,0.9318315,-0.55698836,-1.236141,2.6429083,-1.8053459,5.006179,-0.23406743,8.721172,-57.62161916101911,65.00276777290264,108.27617184088183,1
1729710289513105,-0.6573755,0.9556429,-0.5723965,-1.1946691,2.6421049,-1.7373155,5.1839795,-0.10043382,8.503795,-60.24629615160554,58.36317076346701,106.12748087815699,1
1729710289529105,-0.6766233,1.0041656,-0.60318005,-1.107861,2.6443765,-1.6056999,5.425505,0.14197826,8.225977,-64.01453213738287,45.346364844909125,102.94942262644668,1
1729710289537105,-0.6855969,1.0284647,-0.61769676,-1.0641779,2.6475036,-1.5409774,5.4603963,0.39088723,8.090317,-65.41712972989495,38.95452752655058,101.57249295348475,1
1729710289545105,-0.6941747,1.0527662,-0.6316232,-1.0214739,2.6517098,-1.4764123,5.337998,0.5257726,8.070632,-66.55555374983118,32.63062796348161,100.2265962323103,1
1729710289553105,-0.7023425,1.0771072,-0.644976,-0.9796132,2.6569448,-1.4117198,5.2325873,0.65436953,8.086562,-67.44495545393644,26.367808226716612,98.84738583962525,1
1729710289569105,-0.7174978,1.1259208,-0.66995883,-0.8991356,2.6694658,-1.281293,5.0298495,0.7825642,8.151672,-68.4159311986614,14.01749717226455,95.86371554136147,1
1729710289577105,-0.7245121,1.1503953,-0.68158555,-0.86049235,2.6763153,-1.2154765,4.8304048,0.85619086,8.227065,-68.45179706389781,7.930807951039901,94.1836438233779,1
1729710289585105,-0.73116654,1.174914,-0.6926339,-0.82265055,2.683263,-1.1493717,4.7302246,0.8684694,8.263096,-68.13994698860189,1.9084362221388709,92.32621448201353,1
1729710289593105,-0.7374707,1.1994741,-0.7031036,-0.7853932,2.6901045,-1.0831438,4.6571712,0.8551776,8.278489,-67.43072169015294,-4.040313889466626,90.24706165693796,1
1729710289609105,-0.7490597,1.248701,-0.72229415,-0.71225274,2.7029822,-0.9510927,4.5712776,0.80485636,8.253194,-64.56602627420423,-15.650265114465581,85.20307966081117,1
1729710289617105,-0.75443727,1.2733072,-0.7310199,-0.676833,2.708829,-0.8856246,4.42747,0.7308423,8.1835165,-62.249589426995065,-21.258174198005065,82.09689367298814,1
1729710289625105,-0.7594998,1.2979358,-0.73918056,-0.6418462,2.7143624,-0.8208138,4.373349,0.69168204,8.101351,-59.22124223775184,-26.680580816160834,78.47605388649605,1
1729710289641105,-0.7687064,1.3472449,-0.75383645,-0.5734545,2.7249773,-0.69394267,4.27448,0.66342944,7.929444,-50.4598619700986,-36.7069509208128,69.20631483316198,1
1729710289649105,-0.7725586,1.3726555,-0.75821155,-0.5395443,2.73088,-0.6313896,4.2387767,0.73784584,7.8191304,-44.42310684090446,-41.12361335868052,63.26389511751258,1
1729710289657105,-0.776123,1.3980668,-0.76210666,-0.5064245,2.7372,-0.57008743,4.1399746,0.7899999,7.6627727,-37.06966922751737,-44.969097443888764,56.25176880840778,1
1729710289665105,-0.7794083,1.4234823,-0.76552665,-0.47418627,2.7442527,-0.5100388,4.0297766,0.88158244,7.5060797,-28.330159760881553,-48.07510444918927,48.094121848876775,1
1729710289673105,-0.7824239,1.4489082,-0.76848525,-0.4429074,2.7523663,-0.45118397,3.9098597,1.0142028,7.356852,-18.276634783270914,-50.25986281852683,38.860354019005634,1
1729710289689105,-0.7877152,1.4998027,-0.7730475,-0.38381678,2.7731593,-0.3363181,3.6931632,1.29956,7.1791167,4.365695862626212,-51.29353604955763,18.56171523665448,1
1729710289697105,-0.7900152,1.5252986,-0.7746619,-0.35601568,2.786502,-0.27973437,3.475137,1.6678272,7.072966,15.825198726016833,-50.056876374089256,8.61190844490914,1
1729710289705105,-0.7920895,1.5508578,-0.7758351,-0.3292495,2.8021717,-0.22318141,3.3457725,1.9587277,7.06912,26.679743003698775,-47.74772246972908,-0.5169898983620821,1
1729710289713105,-0.79394746,1.5764989,-0.776565,-0.303478,2.8203225,-0.16624074,3.2214372,2.2688508,7.117584,36.65356621146482,-44.52841875538561,-8.561137011103527,1
1729710289721105,-0.79559755,1.6022418,-0.77684563,-0.27854842,2.841027,-0.108335234,3.1161978,2.5880632,7.2381873,45.68792366079205,-40.56980545367399,-15.47111562046219,1
1729710289737105,-0.7983017,1.6541126,-0.7759943,-0.23062532,2.8899977,0.012607406,2.9951937,3.0606685,7.5589147,61.26437118058986,-31.008119947283873,-26.27735838542886,1
1729710289745105,-0.79936606,1.6802784,-0.77483684,-0.20723495,2.9178395,0.07673434,2.9237957,3.4802256,8.015867,68.06619213552308,-25.62228785918409,-30.471392804883592,1
1729710289753105,-0.8002421,1.7066193,-0.77316153,-0.1838565,2.9473984,0.14396203,2.9223056,3.694862,8.4034605,74.37644129042083,-19.9285816661064,-34.04352077276451,1
1729710289769105,-0.79969686,1.7557278,-0.7692209,-0.1327245,3.005466,0.2888421,3.1957505,3.6292224,9.055005,85.86783055682187,-7.7805578153123856,-39.73057210744968,1
1729710289777105,-0.79826266,1.7785581,-0.7668697,-0.10458547,3.0327208,0.36692107,3.5173779,3.4068522,9.759869,91.14565477603549,-1.3537601658012242,-41.94731669106708,1
1729710289785105,-0.79662293,1.8016323,-0.7638398,-0.075544946,3.0592206,0.44894376,3.6300652,3.3124683,10.252836,96.20193830991079,5.267784102332665,-43.8612729454375,1
1729710289801105,-0.7926917,1.8484577,-0.7556725,-0.013912298,3.106759,0.62412024,3.8520403,2.9711573,10.948529,105.78233691853877,19.06666780806965,-46.88534473425922,1
1729710289809105,-0.7903792,1.8721666,-0.7504806,0.018947586,3.1262965,0.716388,4.1074853,2.442181,11.533468,110.37894610080711,26.23546322133693,-48.01775689101821,1
1729710289817105,-0.78782004,1.8960357,-0.7445206,0.053290535,3.142163,0.8109491,4.292868,1.9833146,11.820137,114.91741294824291,33.57556844702917,-48.86906520188038,1
1729710289825105,-0.78500223,1.920031,-0.7377775,0.08906288,3.153882,0.9070534,4.4715424,1.4648734,12.01304,119.47741581712803,41.076685142504196,-49.375454629588326,1
1729710289841105,-0.7785913,1.9681996,-0.7219127,0.16405816,3.1639376,1.1003169,4.6872053,0.6284713,12.078966,129.35432313480604,56.502094169579806,-48.73987040304925,1
1729710289849105,-0.7749595,1.992325,-0.71277845,0.20306139,3.1620584,1.1955765,4.8754025,-0.23490189,11.907457,135.5816755199429,64.35706809977668,-46.72062809360921,1
1729710289857105,-0.77103364,2.0164268,-0.7028718,0.24267295,3.1557872,1.2887827,4.951445,-0.7838904,11.65077,144.60023633180055,72.18107971609918,-41.64409089262623,1
1729710289865105,-0.76680946,2.0404696,-0.69221276,0.28259262,3.1455436,1.3791168,4.9899592,-1.2804567,11.291757,162.97190331641303,79.5712455079138,-26.960360039706753,1
1729710289873105,-0.76228505,2.0644226,-0.6808276,0.32246286,3.1319404,1.4658664,4.983779,-1.7004012,10.843709,-141.0697455342736,83.87868263370062,25.54606695800556,1
1729710289889105,-0.7523428,2.1119614,-0.6560084,0.40055937,3.0974913,1.6265852,4.8810315,-2.1530688,10.044925,-66.4859339164554,71.93552015918159,93.88305234318547,1
1729710289897105,-0.74810505,2.135975,-0.64228094,0.4376514,3.078542,1.7001206,4.6365037,-2.3686588,9.191915,-58.4185882381195,63.68306734541348,99.12957353675326,1
1729710289905105,-0.7435247,2.159833,-0.6279609,0.47349238,3.0595007,1.7690097,4.4801235,-2.3801625,8.611142,-53.58129381006639,55.23747896720447,101.31671957842757,1
1729710289917105,-0.7386501,2.1835284,-0.61310273,0.5077574,3.041248,1.8334457,2.85542,-1.5210509,5.3696632,-50.21692098316902,46.71950980571006,102.1817606453962,1
1729710289929105,-0.7280743,2.2304738,-0.5819061,0.57097787,3.010223,1.9505761,5.26837,-2.5854309,9.760866,-45.67783206619454,29.67349245967039,102.0760512169882,1
1729710289937105,-0.7224042,2.2537613,-0.56562454,0.59987706,2.9988272,2.0043738,3.6123989,-1.4244615,6.7247148,-44.03493701714048,21.210066160039432,101.49573506438493,1
1729710289945105,-0.7164999,2.2769585,-0.5489175,0.6270122,2.990842,2.0558934,3.3918915,-0.9981393,6.439954,-42.6524325483278,12.826012501082504,100.65581460635508,1
1729710289961105,-0.70404774,2.3232,-0.51428086,0.67655075,2.9861112,2.155159,3.0961595,-0.29568374,6.204098,-40.35202523028986,-3.617627442137087,98.24821079431972,1
1729710289969105,-0.69752556,2.3463063,-0.49634248,0.69938844,2.9895542,2.2043853,2.8547122,0.4303753,6.153285,-39.27178189701505,-11.631129298517736,96.63584145001175,1
1729710289977105,-0.69091314,2.3694372,-0.47800016,0.7209207,2.9970107,2.2542634,2.6915295,0.9320676,6.2347646,-38.116978029081665,-19.469589420617712,94.67521769948257,1
1729710289985105,-0.68412846,2.3926334,-0.45924914,0.7418316,3.007927,2.3053901,2.6138647,1.364529,6.3908396,-36.769448253472504,-27.10398861413857,92.26374523579157,1
1729710290001105,-0.67006207,2.4393258,-0.42046723,0.7829983,3.0385878,2.413287,2.57292,1.9163041,6.74355,-32.71490074885614,-41.61094095965398,85.45209403342332,1
1729710290009105,-0.66278404,2.4628642,-0.4004017,0.80383384,3.0573885,2.4706662,2.6044397,2.350092,7.1724052,-29.395301286036798,-48.34660933329962,80.47938179077872,1
1729710290017105,-0.6559359,2.4876077,-0.37948674,0.82493865,3.0781724,2.530626,2.6381013,2.5979874,7.4949856,-24.548165247893817,-54.58140958082188,73.82273048572647,1
1729710290025105,-0.6489065,2.5124881,-0.35806254,0.84681714,3.0999815,2.5931122,2.7348099,2.7261374,7.810771,-17.381989340238903,-60.09375936697112,64.71396402617944,1
1729710290033105,-0.64169127,2.5375123,-0.33613074,0.86960167,3.1223478,2.658034,2.8480663,2.7957854,8.1152315,-6.951318995051276,-64.50866165509906,52.23185190929957,1
1729710290041105,-0.634284,2.5626833,-0.31367168,0.8934322,3.1447344,2.725169,2.9788165,2.7983186,8.391857,7.181976466278041,-67.28368879491077,35.958396875635614,1
1729710290057105,-0.61917704,2.6135206,-0.26709133,0.9435795,3.1888597,2.864958,3.1342058,2.7578323,8.736818,38.90134753406213,-66.25109055245439,-0.2223173586963285,1
1729710290065105,-0.6113096,2.639156,-0.2429487,0.9703731,3.209568,2.9368775,3.3491998,2.58854,8.98993,50.74036884480598,-62.813925162356384,-14.328593220468377,1
1729710290081105,-0.5949079,2.6908224,-0.19291319,1.0269843,3.2474701,3.0828023,3.5382023,2.3688822,9.1203,64.32151621570941,-52.86382162343963,-32.37580526839835,1
1729710290089105,-0.5863595,2.716835,-0.16699016,1.0565714,3.2646043,3.1561112,3.6983786,2.1417737,9.163618,67.82331160128862,-47.09748940085814,-38.019877815012215,1
1729710290097105,-0.5775717,2.7429557,-0.14047708,1.0867947,3.2806468,3.229242,3.777921,2.0053089,9.1413555,70.07867125177931,-41.06074035114255,-42.319498950481844,1
1729710290105105,-0.56854004,2.769177,-0.113375746,1.1174537,3.295768,3.3019624,3.8323698,1.8901526,9.090035,71.52892859445402,-34.8485039686151,-45.68897846490839,1
1729710290113105,-0.55926156,2.7954926,-0.08568956,1.1483865,3.3101857,3.374121,3.866598,1.8022059,9.019821,72.47376567101286,-28.517631974841933,-48.399754686106675,1
1729710290129105,-0.5398907,2.8483462,-0.028584292,1.2106242,3.3377857,3.516431,3.8898585,1.725003,8.894383,73.61582831939761,-15.625965394601591,-52.500142994622514,1
1729710290137105,-0.52983046,2.8749049,0.0008267332,1.2415649,3.351548,3.586767,3.8675814,1.7202793,8.791983,74.07222734962986,-9.1041830367091,-54.093670477354905,1
1729710290145105,-0.5243285,2.9069538,0.03169371,1.2653742,3.3717573,3.6576567,2.976164,2.5261638,8.861214,74.56675387115689,-2.55360803545286,-55.47700020883337,1
1729710290153105,-0.51855195,2.939037,0.063116364,1.2853442,3.390017,3.729815,2.4962573,2.2824705,9.019792,75.20278477506666,3.927063792417545,-56.759674495401036,1
1729710290169105,-0.5063403,3.0032399,0.12769005,1.310158,3.4185028,3.8800366,1.5508606,1.7803608,9.388848,76.65023879364261,16.87157140573022,-59.17194159045173,1
1729710290181105,-0.49997264,3.0353336,0.16086946,1.3186111,3.430741,3.9571214,0.70442754,1.0198554,6.423732,77.34422841390501,23.30805664046828,-60.45646539867008,1
1729710290189105,-0.4975852,3.0662344,0.18499959,-0.7411708,2.850532,-0.7932735,-257.47275,-72.52612,-593.7993,77.79123818790296,30.459177274218625,-62.414133033882734,1
1729710290201105,-0.5208063,3.0922332,0.15214129,-2.902151,2.5639334,-5.4900765,-180.08168,-23.883223,-391.40027,76.84876766881551,40.32446751193612,-66.96796526247623,1
1729710290205105,-0.54738253,3.1165435,0.11024578,-2.812398,2.471366,-5.4236255,22.438286,-23.14186,16.612768,72.82873616824098,51.192210329884134,-74.62140984891272,1
1729710290213105,-0.5735827,3.1406507,0.068995394,-2.7917626,2.4840655,-5.3405547,2.5794206,1.5874504,10.383843,63.715520629783455,61.295814098323085,-86.90418225510739,1
1729710290221105,-0.59953123,3.164757,0.02839271,-2.7712364,2.4940584,-5.2590933,2.565771,1.2491047,10.182678,44.287522156522634,69.39607880204169,-109.09428843918407,1
1729710290237105,-0.65079385,3.2128706,-0.050897732,-2.7432652,2.5048323,-5.0988436,1.7482041,0.6733685,10.015607,-22.36490454470129,68.02423700904437,179.8641407676442,1
1729710290245105,-0.6761687,3.2368505,-0.08960054,-2.733651,2.5083747,-5.0204744,1.2017787,0.44280288,9.796143,-40.20200143434603,59.31578811023878,160.34227792715126,1
1729710290261105,-0.72651404,3.2846513,-0.16515918,-2.7207994,2.516257,-4.8664994,0.80321723,0.49264726,9.623438,-55.64144214683261,37.98626068351817,142.29595190094406,1
1729710290269105,-0.7515592,3.3084989,-0.2019961,-2.7169917,2.5217972,-4.7899,0.47597286,0.6925165,9.574949,-59.730218607501996,26.750452171046916,137.1161932311729,1
1729710290277105,-0.7773087,3.3328466,-0.23789126,-2.7147532,2.528991,-4.7127156,0.279814,0.8992254,9.648025,-62.83826208554255,15.42456770957637,132.88930158334009,1
1729710290285105,-0.8029574,3.357172,-0.27317467,-2.7133133,2.5375147,-4.634405,0.17997621,1.0654628,9.788811,-65.28988761230879,4.0929278252218415,129.1043400265994,1
1729710290293105,-0.82851213,3.3814876,-0.30783397,-2.7121682,2.547104,-4.554511,0.14314055,1.1986494,9.986758,-67.16606597898684,-7.193925415490555,125.41675779718271,1
1729710290309105,-0.87934524,3.4301212,-0.37521783,-2.7088828,2.5676703,-4.3891087,0.20533799,1.2854038,10.33765,-68.66519603099323,-29.46274875253633,117.0290160620858,1
1729710290317105,-0.90461576,3.4544423,-0.40791062,-2.7059772,2.5774934,-4.3037863,0.36320087,1.2278855,10.665297,-67.49323921743003,-40.31178738916417,111.37235400389444,1
1729710290325105,-0.92977965,3.4787605,-0.43992013,-2.701931,2.5862591,-4.217249,0.5057752,1.0957122,10.817169,-63.79649591848723,-50.75787761403204,103.46890440016396,1
1729710290341105,-0.9793286,3.527162,-0.50221926,-2.6461809,2.6047578,-4.0555267,3.484383,1.1561662,10.1076355,-37.53228764976765,-67.86391880848983,69.67216855657888,1
1729710290353105,-1.0026757,3.5513449,-0.5324565,-2.5515537,2.6201053,-3.9945884,7.8855953,1.2789568,5.0781965,-7.539878637746472,-70.62861020815114,36.4033195041068,1
