timestamp,x,y,z,vx,vy,vz,ax,ay,az,roll,pitch,yaw
1729569901846853,0.036215518,-0.005236337,-4.280641,-0.0107867895,-0.0210743,-0.22642179,0.0,0.0,0.0,1.0772220175897145,-2.60466568917143,94.46375662502626
1729569901855058,0.036130566,-0.0058660177,-4.2795687,-0.011171412,-0.021397874,-0.22648458,-0.04687657,-0.03943609,-0.007653076,1.0690433293918438,-2.6135727382851246,94.46489948800945
1729569901863331,0.036024664,-0.006479197,-4.278683,-0.011571273,-0.02167455,-0.22663401,-0.048333313,-0.033443183,-0.018062232,1.060925580206714,-2.6224535695416407,94.46579563900622
1729569901879400,0.03580645,-0.0076733483,-4.277367,-0.012328439,-0.022117767,-0.22713473,-0.04711968,-0.027582193,-0.03116085,1.0452369880830876,-2.639664152354849,94.46840784377913
1729569901887679,0.03569393,-0.008256156,-4.276899,-0.012702222,-0.022329533,-0.2274816,-0.045148276,-0.02557869,-0.041897476,1.0377308628262476,-2.648200730786039,94.46934440588801
1729569901895887,0.03557897,-0.008830441,-4.276539,-0.013066945,-0.022530468,-0.2278861,-0.044435024,-0.024480348,-0.049280215,1.030292969857759,-2.656846554992174,94.46993774599076
1729569901904155,0.035461627,-0.009396791,-4.276256,-0.013412517,-0.022719799,-0.22832873,-0.04179631,-0.022899183,-0.053536408,1.0229685381099247,-2.6655356020078327,94.47031924103246
1729569901920222,0.03522003,-0.010507069,-4.2759542,-0.0140692275,-0.023019154,-0.2294195,-0.040873278,-0.018631669,-0.06788853,1.0087969068008753,-2.68259785111275,94.4706765870305
1729569901928498,0.035095837,-0.0110515235,-4.275923,-0.014381943,-0.023163386,-0.22998841,-0.03778586,-0.017427752,-0.06874232,1.0020916254407517,-2.6907533102666883,94.4705142283305
1729569901936703,0.034337364,-0.011741027,-4.274876,-0.014835646,-0.023311066,-0.23038125,-0.05529593,-0.017998759,-0.04787804,0.9957022278473812,-2.6986727071229724,94.47023491306865
1729569901944979,0.033594042,-0.012419691,-4.273929,-0.015282351,-0.023452276,-0.23076445,-0.05397586,-0.017062694,-0.046302352,0.9894717030579366,-2.706460527602773,94.46926174630528
1729569901961046,0.03214986,-0.0137456255,-4.2723136,-0.016126454,-0.023667075,-0.23156306,-0.052536458,-0.013368916,-0.049705163,0.9772111701749939,-2.7215367245329665,94.46667057152068
1729569901969046,0.031447835,-0.014393536,-4.2716208,-0.016513329,-0.023762593,-0.23198956,-0.048359387,-0.011939787,-0.053312626,0.9711009906772305,-2.7287530829291446,94.46501660630881
1729569901977046,0.030758476,-0.015031598,-4.271012,-0.016913261,-0.023815768,-0.23245303,-0.04999153,-0.0066468487,-0.05793385,0.9648933681658036,-2.736020769524339,94.46314420362006
1729569901985046,0.030081226,-0.015659973,-4.270484,-0.017277258,-0.023866532,-0.23291604,-0.04549953,-0.006345566,-0.057876106,0.9587455519453125,-2.743278243136681,94.46117527184448
1729569902001046,0.028761666,-0.016888551,-4.26966,-0.01799709,-0.023936385,-0.23393361,-0.044989515,-0.0043658074,-0.063598156,0.9461108030192013,-2.7573259807230306,94.45686600754847
1729569902009046,0.02812783,-0.01749439,-4.2693596,-0.018330013,-0.023972502,-0.23447612,-0.04161545,-0.004514586,-0.06781332,0.9393446081896191,-2.7640307625947007,94.45462793388516
1729569902017046,0.027504524,-0.018091302,-4.269131,-0.018647058,-0.023985604,-0.23504747,-0.039630566,-0.0016377306,-0.0714194,0.9323080420712048,-2.770547318627156,94.45186745454038
1729569902025046,0.026891435,-0.018679308,-4.2689533,-0.018950278,-0.023986401,-0.23561764,-0.0379025,-9.965151e-05,-0.07127039,0.924828509440625,-2.7766399409696803,94.44911978475861
1729569902041046,0.025694778,-0.01982943,-4.2688017,-0.019520111,-0.023955466,-0.23682576,-0.035614587,0.0019334255,-0.07550791,0.9090584340462207,-2.7881709414752454,94.44305186483462
1729569902049046,0.025110682,-0.02039171,-4.268824,-0.019796113,-0.023931043,-0.23745866,-0.034500144,0.0030528752,-0.07911212,0.9011388272768197,-2.794012560369891,94.43981580920406
1729569902057046,0.024535775,-0.02094554,-4.26891,-0.02004228,-0.023867836,-0.23809354,-0.030770896,0.007900875,-0.07935985,0.8933468107632884,-2.799981572651144,94.43650498971603
1729569902065046,0.023773924,-0.021746716,-4.267279,-0.020253196,-0.023935981,-0.23835213,-0.026364576,-0.008518109,-0.032324344,0.8857651294836952,-2.805999552560786,94.43298172363843
1729569902081046,0.022286842,-0.023325792,-4.2643332,-0.020618739,-0.02404764,-0.2388749,-0.02284639,-0.0069786324,-0.03267266,0.870742516647772,-2.8174645942161067,94.42656445577435
1729569902089046,0.021564843,-0.024095478,-4.263,-0.020784607,-0.024078919,-0.23913385,-0.020733567,-0.003909925,-0.032369047,0.8635352951976095,-2.8231022733210906,94.423389601224
1729569902097046,0.020856656,-0.024852239,-4.261764,-0.02095439,-0.024102764,-0.23944236,-0.021222744,-0.0029806977,-0.038564205,0.8563883772458192,-2.828480115979751,94.42019347092064
1729569902105046,0.02016202,-0.02559637,-4.260624,-0.021094916,-0.024118092,-0.23983295,-0.017565908,-0.0019159633,-0.04882365,0.8492144695583798,-2.833794726972561,94.41704556511804
1729569902121046,0.018812569,-0.02704737,-4.2586226,-0.021346198,-0.024065621,-0.24074024,-0.015705125,0.0032794194,-0.056705434,0.8348972340402477,-2.8443034916336174,94.41029491918361
1729569902129046,0.018156977,-0.027754525,-4.2577577,-0.021477778,-0.024021327,-0.24132848,-0.01644739,0.0055367122,-0.07352978,0.827474770157575,-2.8496891263626956,94.40694079429917
1729569902137046,0.017513791,-0.028449656,-4.256981,-0.021577444,-0.023943914,-0.24196452,-0.012458301,0.009676674,-0.07950514,0.8199186826084243,-2.8550980805377355,94.40351163496061
1729569902145046,0.016881872,-0.029141013,-4.2562757,-0.021666417,-0.023865627,-0.24264823,-0.01112162,0.009785872,-0.08546374,0.8123523640679983,-2.8605668988952457,94.40000062053477
1729569902161046,0.015653495,-0.030488314,-4.255118,-0.021853792,-0.023649395,-0.24416237,-0.011710915,0.013514537,-0.09463354,0.7972402500124172,-2.872019445628732,94.39373404565819
1729569902169046,0.015056513,-0.031144636,-4.2546616,-0.021920165,-0.023524337,-0.24496086,-0.008296687,0.01563225,-0.099811696,0.7900308829358579,-2.8780679343031226,94.39055389667799
1729569902177046,0.014470784,-0.031789716,-4.254285,-0.02198591,-0.023408515,-0.245775,-0.008218223,0.014477641,-0.10176747,0.7827517749053521,-2.884156633332522,94.3874500293406
1729569902185046,0.014052729,-0.032499403,-4.2528586,-0.021909267,-0.02328086,-0.246363,0.009580515,0.015956815,-0.07349998,0.7753397170245673,-2.8902470746821325,94.38426377908247
1729569902201046,0.013241539,-0.03387984,-4.250316,-0.021726705,-0.022951908,-0.24754861,0.011410098,0.020559527,-0.07410068,0.7597288043571783,-2.9016266149201737,94.376159213485
1729569902209046,0.012848211,-0.034550894,-4.2491837,-0.021615818,-0.022770328,-0.24816182,0.013860873,0.022697493,-0.07665157,0.7518919889381401,-2.9070095282583384,94.37213362495193
1729569902217046,0.01245083,-0.03521,-4.2481475,-0.021491278,-0.022587214,-0.24880795,0.015567522,0.022889346,-0.08076615,0.7440216372281651,-2.912426662390524,94.36821736445972
1729569902225046,0.012061623,-0.035856847,-4.2472057,-0.021373855,-0.022389526,-0.24951449,0.014677876,0.024711013,-0.08831731,0.7363569614146861,-2.9177363211789484,94.36441803451017
1729569902241046,0.011306929,-0.037114114,-4.245598,-0.021136785,-0.02193046,-0.25105822,0.014816876,0.028691603,-0.09648315,0.7217748701845141,-2.92783465872675,94.35692655596895
1729569902249046,0.010941144,-0.037724733,-4.2449284,-0.021022107,-0.021685977,-0.2518912,0.014334683,0.030560417,-0.10412186,0.715215789440105,-2.932893479168091,94.35322155247873
1729569902257046,0.010582853,-0.038323473,-4.244345,-0.020893877,-0.021414356,-0.2527642,0.01602876,0.033952527,-0.10912492,0.7092283180001545,-2.9378262251485645,94.34953645581339
1729569902265046,0.010232062,-0.03891045,-4.2438335,-0.020742156,-0.021141432,-0.2536752,0.01896522,0.03411551,-0.11387467,0.7039309217986903,-2.9427820752500833,94.3458998416853
1729569902281046,0.009565933,-0.040056024,-4.2430596,-0.020403065,-0.020574773,-0.25560597,0.021193175,0.035416216,-0.12067332,0.6946244185008014,-2.9520552250442758,94.3384395406957
1729569902289046,0.009250188,-0.0406147,-4.2427936,-0.020234147,-0.020264974,-0.25658706,0.02111471,0.03872486,-0.12263655,0.6904964628557475,-2.9562930127146947,94.33469035547223
1729569902297046,0.008941321,-0.04116209,-4.2426057,-0.020051375,-0.019958967,-0.25757343,0.022846505,0.038250815,-0.123295926,0.686825008489913,-2.960453874255639,94.33101037287855
1729569902305046,0.008639336,-0.041698337,-4.242494,-0.019857086,-0.019645507,-0.25854266,0.024286097,0.039182603,-0.12115388,0.6834779855778147,-2.964583974382522,94.32735686682479
1729569902321046,0.007277253,-0.041794285,-4.239115,-0.019889887,-0.018505853,-0.25982627,-0.0020500738,0.07122836,-0.08022598,0.6777015355854201,-2.9727544538768265,94.31961097801586
1729569902329046,0.006617938,-0.041840978,-4.2375913,-0.019902505,-0.017955193,-0.26045242,-0.0015771947,0.06883242,-0.07826835,0.6752719423255975,-2.9768437772080247,94.31549761703099
1729569902337046,0.005972588,-0.041886747,-4.236178,-0.019921497,-0.017407214,-0.26109555,-0.0023739412,0.068497375,-0.08039176,0.6732070131531588,-2.980478292808221,94.31152011380665
1729569902345046,0.005340787,-0.041931394,-4.2348723,-0.019926652,-0.016845725,-0.26173913,-0.00064447516,0.07018609,-0.08044764,0.6714384579591559,-2.9839379866425317,94.30761786261357
1729569902361046,0.004213315,-0.04202395,-4.232575,-0.019843448,-0.015722157,-0.26320797,0.005200272,0.070222996,-0.09180232,0.6677728064196594,-2.989454454335997,94.29846820840991
1729569902369046,0.0036676293,-0.042067785,-4.231579,-0.019787053,-0.015162959,-0.26402834,0.007049413,0.06989983,-0.10254606,0.6655204470096261,-2.991071141558779,94.29331706766334
1729569902377046,0.0031336625,-0.042109836,-4.230682,-0.019716453,-0.014607856,-0.26493075,0.00882498,0.06938784,-0.11280178,0.663092367043105,-2.992088304929054,94.28828688768601
1729569902385046,0.0026110832,-0.04214998,-4.2298737,-0.019655775,-0.014037215,-0.26588187,0.0075846906,0.07133011,-0.11888891,0.6605309029711174,-2.9923157187639595,94.2832536331317
1729569902401046,0.0015985998,-0.04222365,-4.22854,-0.01954335,-0.012888724,-0.26785272,0.0070265955,0.0717807,-0.12317858,0.6552094566222645,-2.9905568962635787,94.27334265475223
1729569902409046,0.0011080845,-0.042257097,-4.2280097,-0.019486504,-0.012329878,-0.2688611,0.007105758,0.06985571,-0.1260452,0.6524167464904548,-2.9886506000344504,94.26848617696476
1729569902417046,0.00062769046,-0.04228822,-4.2275686,-0.019412963,-0.011781538,-0.26988256,0.0091926195,0.06854255,-0.12768432,0.6497941096137523,-2.9861791952428995,94.26358650473952
1729569902425046,0.00017626325,-0.042328335,-4.2272134,-0.019306626,-0.011260116,-0.27089977,0.013292068,0.06517779,-0.12715161,0.6470879406941908,-2.983423530955185,94.25880911693545
1729569902441046,-0.00046308496,-0.04249004,-4.2256136,-0.018892292,-0.010197289,-0.27263334,0.025895888,0.066426635,-0.1083482,0.6418992537776751,-2.9775666184611924,94.24943200344116
1729569902449046,-0.0006554795,-0.042608444,-4.224387,-0.018612687,-0.009653935,-0.27336997,0.034950674,0.067919254,-0.09207799,0.6392077198112456,-2.9745852753778133,94.24287043764672
1729569902457046,-0.0008429951,-0.042721175,-4.2232666,-0.018352507,-0.009118237,-0.27410585,0.03252248,0.066962324,-0.09198486,0.6366815112524989,-2.971475060687839,94.23627480530921
1729569902465046,-0.0010258227,-0.04282831,-4.2222495,-0.018088946,-0.0085901,-0.27486202,0.03294507,0.06601703,-0.09452178,0.6340483825719707,-2.9682789352336023,94.2297408485573
1729569902481046,-0.0013770417,-0.04302616,-4.220516,-0.017504487,-0.00753446,-0.27644497,0.03652868,0.06597751,-0.09893439,0.6287648974641353,-2.9619649368390295,94.21700220479693
1729569902489046,-0.0015452318,-0.043116946,-4.2197948,-0.0172034,-0.0070093204,-0.27729383,0.037635908,0.06564246,-0.106107436,0.6260491064951951,-2.9587487484009416,94.2107146618076
1729569902497046,-0.0016998723,-0.043212973,-4.2191677,-0.016900418,-0.0064953896,-0.2782012,0.0378727,0.06424135,-0.11342018,0.6233257767616198,-2.9554504978597538,94.20455750529388
1729569902505046,-0.001849798,-0.043303687,-4.218624,-0.016596872,-0.0060035237,-0.2791357,0.037943244,0.061483234,-0.11681392,0.6206332382800244,-2.952067193758116,94.1987846098764
1729569902513046,-0.0019950434,-0.043389194,-4.218171,-0.016284384,-0.0054966877,-0.28007877,0.039061066,0.06335449,-0.11788308,0.6179480522718831,-2.9486279036479814,94.19310042078834
1729569902529046,-0.0022713654,-0.04354461,-4.217529,-0.015639752,-0.00450869,-0.28197634,0.040289477,0.061749857,-0.118598334,0.6126094970822685,-2.9414373167837846,94.18203227139657
1729569902537046,-0.0024024034,-0.043614864,-4.217334,-0.015308237,-0.0040344805,-0.28291216,0.04143943,0.059276175,-0.11697783,0.6102495925491802,-2.9376644358642876,94.17669680782943
1729569902545046,-0.0025287531,-0.04368025,-4.217221,-0.014977509,-0.0035505977,-0.2838398,0.04134094,0.06048535,-0.11595338,0.6082632716929381,-2.9338599366092493,94.17158039960022
1729569902561046,-0.0028266963,-0.043289676,-4.2165856,-0.014337454,-0.002325513,-0.28552708,0.040003445,0.07656779,-0.10545551,0.6057409111848395,-2.9261753193059166,94.16169122526132
1729569902569046,-0.002997366,-0.042843733,-4.216068,-0.014058439,-0.0015692747,-0.28626624,0.034876864,0.09452978,-0.09239464,0.6050064336707002,-2.9226506203801055,94.15458788153225
1729569902577046,-0.0031626478,-0.04240277,-4.2156396,-0.013786591,-0.00083714747,-0.2870055,0.033981048,0.0915159,-0.09240954,0.6046657900752468,-2.9189784652284394,94.1476348950937
1729569902585046,-0.0033226444,-0.04196662,-4.2152987,-0.013525023,-0.000118753844,-0.28773707,0.03269594,0.089799196,-0.09144469,0.6045926751834222,-2.9151806547204053,94.14092118972302
1729569902601046,-0.0036269708,-0.0411081,-4.2148705,-0.012957475,0.001275643,-0.28922722,0.03547175,0.0871498,-0.09313411,0.6051647118250485,-2.906971913814767,94.1277397306684
1729569902609046,-0.0037715384,-0.04068539,-4.214779,-0.012696084,0.0019505228,-0.28997487,0.032673936,0.084359966,-0.09345635,0.6059705990297578,-2.9024810574654523,94.12143618102165
1729569902617046,-0.003911277,-0.040266857,-4.2147665,-0.012427131,0.0026038892,-0.2907153,0.033619113,0.0816708,-0.09255483,0.6070239479722532,-2.897607666085555,94.11534973473016
1729569902625046,-0.0040462823,-0.039852466,-4.2148204,-0.012158675,0.003240094,-0.2914615,0.03355695,0.079525605,-0.09327381,0.6082710062613029,-2.8923419136638393,94.1094409418589
1729569902633046,-0.004200918,-0.039458208,-4.2149496,-0.011936033,0.003850791,-0.29216984,0.027830245,0.0763371,-0.08854269,0.6097054995753272,-2.886527366552208,94.10380505692144
1729569902649046,-0.0044963346,-0.038680423,-4.215427,-0.011496359,0.0050397734,-0.29351482,0.027479662,0.074311405,-0.08406117,0.6132340095550869,-2.8733850651369917,94.09603672293284
1729569902657046,-0.004637441,-0.038296614,-4.2157707,-0.011283755,0.0056051463,-0.29414997,0.026575405,0.0706716,-0.07939338,0.6153024073020599,-2.866204361111585,94.09245227368896
1729569902665046,-0.004774353,-0.037916124,-4.216182,-0.011079476,0.0061468533,-0.2947871,0.025534885,0.06771338,-0.079642974,0.6175623177906598,-2.8586821945417404,94.08890173264034
1729569902681046,-0.0050365683,-0.037164852,-4.2172008,-0.010725208,0.007188381,-0.29595855,0.022141786,0.065095484,-0.07321499,0.6224290097139425,-2.84311955721147,94.08253918802855
1729569902689046,-0.005383749,-0.03681289,-4.2174273,-0.010623903,0.0077008666,-0.29640248,0.012663076,0.06406067,-0.05549192,0.6250186519926756,-2.8350436181486085,94.0795620086938
1729569902697046,-0.005734093,-0.03646191,-4.2177234,-0.0105454475,0.008179958,-0.29682472,0.009806942,0.059886426,-0.05277991,0.6276703726163494,-2.8269784206304003,94.07714103581769
1729569902705046,-0.0060761306,-0.036113333,-4.2180877,-0.010463639,0.008618974,-0.2972174,0.010226037,0.054877017,-0.04908442,0.6304590626542691,-2.818713467819803,94.07518539419345
1729569902721046,-0.006736645,-0.035423245,-4.219012,-0.010327398,0.009476426,-0.29786313,0.008515082,0.053590745,-0.04035793,0.6358509894501878,-2.802256609463392,94.07169319543797
1729569902729046,-0.007055505,-0.035081804,-4.2195673,-0.010259211,0.009873781,-0.298152,0.008523348,0.04966941,-0.03610924,0.6383992056369043,-2.7940352122995167,94.07021777867091
1729569902737046,-0.0073670987,-0.034742907,-4.2201824,-0.010181894,0.010247169,-0.2984192,0.009664684,0.04667346,-0.033400953,0.6406517180368733,-2.785834601216717,94.06912020833539
1729569902745046,-0.0076715085,-0.034406632,-4.220842,-0.010098543,0.010604242,-0.29862872,0.010418821,0.044634096,-0.026188789,0.6426333198401672,-2.7775571172394264,94.06822118962096
1729569902761046,-0.008260025,-0.03374234,-4.222329,-0.009986868,0.011240727,-0.298946,0.00697968,0.039780337,-0.019829718,0.645887747606231,-2.7612356742732667,94.06706799242114
1729569902769046,-0.008509664,-0.03342426,-4.223154,-0.009886488,0.011525587,-0.29908562,0.012547475,0.035607487,-0.017452985,0.6471697040297492,-2.7532639389817066,94.06680089061318
1729569902777046,-0.008753539,-0.033108953,-4.2240305,-0.009796974,0.011797932,-0.29916698,0.011189258,0.0340431,-0.010170042,0.6480033918194648,-2.7454702596927705,94.06632137706323
1729569902785046,-0.008991793,-0.03279653,-4.224957,-0.0097039705,0.012038826,-0.29921493,0.011625466,0.030111752,-0.0059939916,0.6485729386867533,-2.7378426662825226,94.06599410889052
1729569902801046,-0.009452095,-0.032180857,-4.226955,-0.009532364,0.012468932,-0.2991853,0.010725401,0.026881635,0.0018514692,0.6490009419310632,-2.7233408634982705,94.06614366712432
1729569902809046,-0.009197988,-0.031970117,-4.2271776,-0.009144006,0.01265263,-0.2989577,0.04854472,0.022962222,0.02845004,0.6488554836958034,-2.716333092598932,94.0663803061923
1729569902817046,-0.008947743,-0.031759858,-4.227466,-0.008743599,0.01283358,-0.29868123,0.050050903,0.022618797,0.034559518,0.6481966975836245,-2.709577293783248,94.06433549360543
1729569902825046,-0.008701212,-0.031550195,-4.2278185,-0.008362704,0.012994956,-0.29837543,0.047611885,0.02017198,0.038225204,0.6471756069032001,-2.7029377752016774,94.06242150639686
1729569902841046,-0.008218977,-0.031133162,-4.228705,-0.0076187206,0.013264874,-0.29764387,0.046498954,0.01686986,0.045722347,0.6446313504123287,-2.6905887774475574,94.05897332345268
1729569902849046,-0.007968418,-0.030922921,-4.2292356,-0.0072290897,0.013384501,-0.2972732,0.04870386,0.014953431,0.046335157,0.6431331176020222,-2.685042111314572,94.05739844013362
1729569902857046,-0.0077211387,-0.030713772,-4.2298226,-0.006851712,0.013489931,-0.2969052,0.047172245,0.013178679,0.04599988,0.6416412860704677,-2.679842054557128,94.0556196805452
1729569902865046,-0.007476949,-0.030505847,-4.230448,-0.006467939,0.013579318,-0.29651794,0.04797161,0.011173425,0.04840642,0.6402752459903188,-2.6747140287660938,94.05384799811726
1729569902881046,-0.0069970526,-0.030093921,-4.2318554,-0.005726537,0.013727526,-0.29571307,0.046337605,0.009262992,0.050304454,0.6388559568032568,-2.664742442143897,94.05081911296173
1729569902889046,-0.00676112,-0.029890133,-4.232635,-0.005359901,0.013792547,-0.29530764,0.04582951,0.008127652,0.050678845,0.6388758752801876,-2.659863622781308,94.04934998788453
1729569902897046,-0.0065277047,-0.029687865,-4.2334633,-0.0050143907,0.013831319,-0.29489315,0.043188803,0.0048464863,0.051811334,0.6391533295449827,-2.655107470896331,94.04812103885693
1729569902905046,-0.00629674,-0.029487321,-4.2343383,-0.0046769097,0.013859055,-0.29447055,0.042185128,0.0034669645,0.052824613,0.6397900640509034,-2.650603683945149,94.0468994023278
1729569902921046,-0.0058416333,-0.02909147,-4.236224,-0.0040136417,0.013891424,-0.29361966,0.041454244,0.0020230655,0.053180378,0.6425772520606419,-2.6425843854698257,94.04491987720661
1729569902929046,-0.0056182505,-0.0289142,-4.237213,-0.0037140332,0.013845962,-0.29315752,0.03745107,-0.0056828135,0.057768073,0.6447112545667235,-2.639169719769662,94.04406625652499
1729569902937046,-0.0055142124,-0.028168602,-4.237024,-0.0034457417,0.014169562,-0.29241878,0.03353643,0.040450014,0.09234249,0.647361455908919,-2.636057619441506,94.0441109346188
1729569902945046,-0.0054093194,-0.027435608,-4.236905,-0.0031810333,0.014476856,-0.29166457,0.03308855,0.038411815,0.094275914,0.6503613679524295,-2.63381772396741,94.04252657405627
1729569902961046,-0.005196938,-0.026006443,-4.2368746,-0.0026569492,0.015072566,-0.2901595,0.032755252,0.03723189,0.0940673,0.6569286510961159,-2.630461200170441,94.03945207546361
1729569902969175,-0.0050895154,-0.025309544,-4.2369576,-0.0024054695,0.015348285,-0.28941852,0.030936116,0.033917945,0.09115207,0.6603863037525287,-2.6291546176613227,94.03804939501204
1729569902977175,-0.004981435,-0.024624113,-4.2371044,-0.002169387,0.015610763,-0.28872168,0.029510323,0.03280968,0.08710473,0.6640751104452991,-2.627549114878446,94.03682404839566
1729569902985175,-0.004872741,-0.023949927,-4.2372994,-0.0019296438,0.015856864,-0.28805178,0.029967893,0.030762631,0.08373707,0.6680185568643482,-2.6254421359850344,94.035699808184
1729569903001175,-0.004662624,-0.022649078,-4.2378707,-0.0014661489,0.016301524,-0.28682688,0.028968431,0.027791247,0.07655658,0.6764690710482788,-2.6195551775768045,94.03398822720379
1729569903009175,-0.004561335,-0.022021864,-4.2382436,-0.0012698721,0.016491393,-0.28625664,0.0245346,0.02373359,0.071279705,0.6812224796505701,-2.615909601866496,94.03418907698023
1729569903017175,-0.004459708,-0.021404758,-4.2386727,-0.0010785144,0.016684895,-0.2857572,0.023919709,0.024187842,0.06242841,0.6861405939297335,-2.611856576816769,94.03440846248898
1729569903025175,-0.004357869,-0.020797571,-4.239157,-0.0009075365,0.016842421,-0.28530005,0.021372236,0.019690719,0.05714595,0.6908485187672324,-2.6073995249883444,94.03486045908306
1729569903041175,-0.004153869,-0.019612653,-4.2402854,-0.00056218856,0.017118338,-0.284451,0.021584244,0.017244834,0.053064894,0.6997150608432495,-2.5974090343988516,94.03604848770804
1729569903049175,-0.004051732,-0.019034425,-4.2409086,-0.00038377257,0.017239362,-0.2840562,0.022301998,0.015127937,0.049352642,0.7037552082866623,-2.5918649209921436,94.0369218834098
1729569903057175,-0.00394946,-0.01846546,-4.2415814,-0.0002015577,0.017359147,-0.28365695,0.022776857,0.014973105,0.049903985,0.70749243921608,-2.5859321824742705,94.03792389203181
1729569903065175,-0.0038139706,-0.017434925,-4.241216,-8.448931e-05,0.017599717,-0.2830172,0.014633549,0.03007124,0.0799708,0.7110813460720176,-2.579768291613397,94.03903525408691
1729569903081175,-0.0035292325,-0.015432453,-4.240708,0.000186727,0.017997505,-0.28176415,0.016951019,0.024861772,0.078314915,0.718062484123318,-2.567234846924971,94.04253931847306
1729569903089175,-0.0033803354,-0.014459622,-4.24056,0.00031095522,0.018170299,-0.28116027,0.015528526,0.021599231,0.07548556,0.7214480607335103,-2.560739237471903,94.04363603772674
1729569903097175,-0.0032333275,-0.013505973,-4.240481,0.0004410352,0.018314965,-0.2805781,0.016259996,0.018083258,0.07276982,0.7246359540614516,-2.5541103398136467,94.04484138284664
1729569903105175,-0.003088191,-0.012571226,-4.240455,0.0005626383,0.018437482,-0.2800379,0.015200384,0.0153146675,0.06752461,0.727725861659888,-2.54746182014679,94.0462878238661
1729569903121175,-0.0028035466,-0.010757257,-4.240599,0.0007830228,0.018629342,-0.2791174,0.013774031,0.011991243,0.057531517,0.7344586857920976,-2.533518158173785,94.04941742449329
1729569903129175,-0.0026641411,-0.009877299,-4.240766,0.0008715275,0.018704673,-0.27872136,0.011063086,0.00941637,0.04950538,0.7380153920196423,-2.526217467715516,94.05118314062702
1729569903137175,-0.0025267699,-0.009014981,-4.240994,0.0009505366,0.018758675,-0.2783665,0.009876137,0.0067502256,0.044357028,0.74156059379462,-2.518687358383757,94.05303773424151
1729569903145175,-0.0023914203,-0.008170132,-4.2412815,0.0010264124,0.018765751,-0.2780422,0.009484473,0.00088452356,0.040538605,0.7451490328604118,-2.5110682011306826,94.05506352263828
1729569903161175,-0.002124953,-0.0065442296,-4.24203,0.0011588088,0.018738871,-0.27743885,0.008274779,-0.0016799894,0.03770925,0.7522629862354774,-2.4955539890838567,94.05960042495573
1729569903169175,-0.0019947598,-0.005756314,-4.242471,0.0012225888,0.018703012,-0.2771536,0.007972499,-0.0044824556,0.035654753,0.7558941924589139,-2.4876615010086884,94.06211883546773
1729569903177175,-0.0018666957,-0.004984716,-4.242966,0.0012436958,0.018651478,-0.27689207,0.0026383784,-0.006441725,0.032693148,0.7596022230112142,-2.4796210052460723,94.06475338779047
1729569903185175,-0.001462507,-0.0043957024,-4.241619,0.0014851643,0.018493226,-0.27619088,0.030183552,-0.019781522,0.08764862,0.7632359129245644,-2.471651487543323,94.06737426942546
1729569903201175,-0.0006740971,-0.0032547181,-4.2392206,0.001971484,0.018120576,-0.27489072,0.030394977,-0.02329063,0.08125975,0.7694596024799282,-2.4555790707803564,94.06999131601086
1729569903209175,-0.00028954152,-0.0027025195,-4.2381635,0.002196159,0.017925523,-0.27430713,0.02808438,-0.024381557,0.072948635,0.7724679580026093,-2.4476220879770882,94.07144094350932
1729569903217175,0.00012117997,-0.0021675932,-4.2371974,0.0024350826,0.017715666,-0.27381214,0.029865447,-0.026232095,0.061873343,0.7755073665199453,-2.4396741251643554,94.07292489237784
1729569903225175,0.00052527606,-0.0016444958,-4.236314,0.002657679,0.01748273,-0.27341518,0.027824542,-0.0291171,0.049620863,0.7783529750484431,-2.4318067500220195,94.0734695114231
1729569903241175,0.0013141823,-0.0006330203,-4.23481,0.0030749107,0.017028663,-0.27291635,0.026076987,-0.028379144,0.031176953,0.7841308274004697,-2.4173150564585715,94.07477570497896
1729569903249175,0.0016993111,-0.00014440584,-4.234186,0.003276732,0.01677597,-0.27282962,0.025227664,-0.031586736,0.010840594,0.7870803779120388,-2.41055912689255,94.07547517924658
1729569903257175,0.0020784484,0.00033275748,-4.233646,0.003475153,0.016491264,-0.27281716,0.024802603,-0.035588164,0.0015571712,0.7902192404405657,-2.404091206014808,94.07632636347334
1729569903265175,0.0024517863,0.00079857727,-4.233187,0.0036619322,0.016218053,-0.27286044,0.023347411,-0.034151364,-0.005409121,0.7935753909328072,-2.3979706789157706,94.07704091919379
1729569903281175,0.0031813919,0.0016967297,-4.232508,0.0040179817,0.015626438,-0.27316853,0.022253092,-0.03697595,-0.019256026,0.8001195555862146,-2.386992893152315,94.07888643247144
1729569903289175,0.0035379662,0.0021292053,-4.2322726,0.0041621886,0.015315509,-0.2734272,0.018025864,-0.03886607,-0.032331795,0.803428276871691,-2.382074740288635,94.079844731092
1729569903297175,0.0038942273,0.002557194,-4.2321124,0.0042969137,0.015006268,-0.27374363,0.01684064,-0.038655125,-0.03955513,0.8070279222591399,-2.3775206258673314,94.08083200036236
1729569903305175,0.0042450177,0.0029743284,-4.2320266,0.004426052,0.014697942,-0.274096,0.016142264,-0.038540803,-0.04404783,0.8108440662563641,-2.373283121134615,94.08136094969352
1729569903321175,0.0037470201,0.0029085684,-4.229638,0.004071953,0.0137650315,-0.27426425,-0.022131192,-0.058306903,-0.010514631,0.8198639353138161,-2.365629326673973,94.0842783779704
1729569903329175,0.003508557,0.002875078,-4.228593,0.0038843148,0.013287591,-0.27438062,-0.023454746,-0.05968008,-0.014547258,0.8249151504253606,-2.3622010693754847,94.08674988954202
1729569903337175,0.0032767658,0.0028408396,-4.227644,0.0037004682,0.01280185,-0.27451903,-0.02298082,-0.06071757,-0.017300248,0.8301590436616144,-2.3590810806036324,94.0893784607742
1729569903345175,0.0030512228,0.0028057175,-4.2267814,0.0034775669,0.012322729,-0.27471706,-0.027862668,-0.05989009,-0.024754552,0.8355123664620079,-2.3563704024431398,94.09202285136308
1729569903361175,0.002617259,0.0027322613,-4.225331,0.0030412227,0.011345811,-0.27528736,-0.027271511,-0.06105739,-0.035643578,0.8453429369567041,-2.352299588568121,94.09717816303144
1729569903369175,0.0023776172,0.002685618,-4.2247386,0.0027898762,0.010851496,-0.27564996,-0.031418312,-0.06178941,-0.045325603,0.8494006308830184,-2.3511436727101653,94.0998615051835
1729569903377175,0.0021433088,0.002637594,-4.224233,0.0025336393,0.010344138,-0.27604252,-0.032029606,-0.063419685,-0.04906952,0.8530463867529298,-2.3503359634542385,94.10297076420288
1729569903385175,0.0019140372,0.0025881308,-4.223812,0.0022727596,0.009856304,-0.2765234,-0.032609966,-0.060979273,-0.06011128,0.8560961409547017,-2.349804255606187,94.1061289722664
1729569903401175,0.001469411,0.00248479,-4.223218,0.0017439536,0.008897778,-0.2776692,-0.033050373,-0.059907902,-0.071611255,0.8601670432208696,-2.3494340469267727,94.11262437500523
1729569903409175,0.0012534745,0.002430786,-4.2230306,0.0014835722,0.008417213,-0.27832115,-0.03254767,-0.060070537,-0.08149444,0.861335784532793,-2.3497719985275047,94.1160322071395
1729569903417175,0.0010416073,0.0023749843,-4.222921,0.0012408348,0.007917481,-0.27898285,-0.030342167,-0.062466595,-0.08271261,0.8619629898432475,-2.3506801103453285,94.11941350537553
1729569903425175,0.0008335997,0.002317315,-4.2228885,0.0009914545,0.0074439305,-0.2796567,-0.031172544,-0.059193753,-0.08423253,0.8622648747045981,-2.3521855136653973,94.12284523850673
1729569903441175,0.00036984147,0.0022926652,-4.222498,0.0004826515,0.006523716,-0.28089753,-0.03180018,-0.057513416,-0.07755123,0.8612457549072506,-2.3562785441063485,94.13001899504157
1729569903449175,0.000115405535,0.0023234035,-4.222151,0.00022243022,0.006077728,-0.28146085,-0.03252766,-0.0557485,-0.07041544,0.8599244263004885,-2.358815545422442,94.13342594527955
1729569903457175,-0.00013444148,0.002349969,-4.221886,-2.7948678e-05,0.0056446227,-0.28204045,-0.03129736,-0.054138128,-0.072449446,0.8580095494346558,-2.361576216561349,94.13684703731226
1729569903465175,-0.00037990493,0.0023724532,-4.221693,-0.0002846295,0.005221752,-0.2826377,-0.032085102,-0.05285884,-0.07465482,0.8555451194175824,-2.3646893749269275,94.14037970081955
1729569903481175,-0.0008582602,0.0024051804,-4.2215424,-0.000764358,0.0043588327,-0.28381488,-0.029983029,-0.05393245,-0.07357448,0.8497684557837225,-2.372101339010463,94.1473932518025
1729569903489175,-0.0010912773,0.002415607,-4.2215805,-0.0009923027,0.003952224,-0.2843961,-0.028493086,-0.050826114,-0.07265434,0.8462203097990058,-2.3759577293840155,94.15092720463929
1729569903497175,-0.001320322,0.0024222378,-4.221692,-0.0012109424,0.0035505819,-0.28495592,-0.027329965,-0.050205242,-0.06997585,0.8422552980416734,-2.3797859316763725,94.15439349017164
1729569903505175,-0.001545366,0.0024250913,-4.221875,-0.0013992657,0.0031406535,-0.28552583,-0.023540413,-0.051241044,-0.07123873,0.8379731236269515,-2.383542792765026,94.15784566354263
1729569903513175,-0.0017527181,0.0024196424,-4.2221274,-0.0015780124,0.0027474174,-0.28608772,-0.02234333,-0.049154505,-0.07023662,0.8333943411945164,-2.387185586320815,94.16130417785543
1729569903529175,-0.0021562593,0.0023983791,-4.2228208,-0.001891089,0.0019869318,-0.28718337,-0.01956729,-0.04753035,-0.068478286,0.8232627626168467,-2.3947301219234998,94.16827779270768
1729569903537175,-0.0023525478,0.0023826605,-4.223259,-0.002029885,0.0016171759,-0.2877109,-0.017349506,-0.046219487,-0.06594136,0.8176619415755073,-2.3987273583031827,94.17171058223568
1729569903545175,-0.0025451877,0.002363727,-4.22376,-0.0021609745,0.0012606271,-0.2882107,-0.016386183,-0.0445686,-0.062473115,0.8117812152498007,-2.4026865800066104,94.17514264570333
1729569903561175,-0.0026954946,0.00234027,-4.2240286,-0.002354013,0.0005568573,-0.28891364,-0.012064905,-0.043985605,-0.043934207,0.7994035685958996,-2.4105326364682864,94.1819527846197
1729569903569175,-0.002658845,0.0023352501,-4.2238154,-0.0024126205,0.00022967548,-0.28910273,-0.0073259287,-0.040897727,-0.023636965,0.7930740581474525,-2.414375248803547,94.18522709380622
1729569903577175,-0.0026241816,0.0023266783,-4.223681,-0.0024576718,-9.293695e-05,-0.28926408,-0.005631416,-0.040326554,-0.02016872,0.7868193832622167,-2.4182283400542146,94.18852287372083
1729569903585175,-0.0025913469,0.0023146782,-4.223612,-0.0024941068,-0.00041178177,-0.28938472,-0.004554371,-0.039855603,-0.015079974,0.7807562251091791,-2.422062215163669,94.19171440424535
1729569903601175,-0.002527076,0.0022513375,-4.223693,-0.002536753,-0.0010537163,-0.2896235,-0.0026653868,-0.040120907,-0.014923512,0.7684810304017181,-2.429596903057734,94.19872952488483
1729569903609175,-0.0024972993,0.0022150632,-4.2238393,-0.0025644195,-0.0013733464,-0.2897369,-0.0034583206,-0.039953765,-0.014174729,0.7625298814244248,-2.433145392644418,94.20257914016968
1729569903617175,-0.002469052,0.0021757667,-4.224054,-0.0025944666,-0.0016729797,-0.2898735,-0.0037558782,-0.037454154,-0.01707673,0.756734970867016,-2.4365533187069945,94.20636034521101
1729569903625175,-0.0024423143,0.0021335955,-4.2243357,-0.0026282142,-0.0019661137,-0.29003802,-0.0042184545,-0.03664175,-0.0205636,0.7510761319282688,-2.439693138862248,94.21005118029149
1729569903633175,-0.0024170137,0.0020885796,-4.224682,-0.0026496053,-0.002256262,-0.2902059,-0.002673885,-0.03626855,-0.020984558,0.74560477133301,-2.442668679078278,94.21367259747286
1729569903649175,-0.002369844,0.0019898277,-4.2255487,-0.0026365612,-0.002874196,-0.29049543,0.00081525644,-0.038620867,-0.018095598,0.7351848324127763,-2.448381358774945,94.22087482177206
1729569903657175,-0.002308187,0.0019449712,-4.226066,-0.0025878544,-0.0031677503,-0.29063097,0.0060883462,-0.03669428,-0.01694262,0.7302068564712686,-2.451363327428739,94.22429831483576
1729569903665175,-0.0022478316,0.0018972354,-4.226642,-0.0025125665,-0.003443424,-0.29074824,0.009410985,-0.034459196,-0.014659016,0.7255708809571658,-2.4544967730635654,94.22675546567478
1729569903681175,-0.002130495,0.0017934202,-4.227963,-0.0023746928,-0.0039880653,-0.2909502,0.008617105,-0.034040086,-0.012623145,0.7176992324363197,-2.4606382794598143,94.23165591381635
1729569903689175,-0.0023112863,0.0013600198,-4.227464,-0.002362092,-0.004508709,-0.2907172,0.0015750992,-0.06508047,0.029124318,0.7145021898501894,-2.4635081140195068,94.23390654446081
1729569903697175,-0.002487006,0.0009307435,-4.2270484,-0.0023307495,-0.0050171935,-0.29047734,0.003917812,-0.06356055,0.02998486,0.7117191820124522,-2.466031855871697,94.23743893891098
1729569903705175,-0.0026577145,0.0005054333,-4.226704,-0.00230596,-0.005511826,-0.29021913,0.0030986846,-0.06182905,0.032275915,0.7092852053737287,-2.468548552336371,94.24088119970891
1729569903721175,-0.002984782,-0.0003335037,-4.226248,-0.0022509138,-0.0064370753,-0.28964323,0.0034403927,-0.057828087,0.035993755,0.7055804244482978,-2.4739122508794664,94.24756829654645
1729569903729175,-0.0031481704,-0.0007466547,-4.226131,-0.002229244,-0.0068830447,-0.28939053,0.0027087224,-0.05574617,0.031586736,0.7043575603136778,-2.4769438418603014,94.25070379619038
1729569903737175,-0.0033069018,-0.0011562931,-4.226086,-0.0021845163,-0.0073284814,-0.28919917,0.005590962,-0.055679582,0.023920087,0.7033761391486575,-2.4803397020128224,94.25417011195478
1729569903745175,-0.0034609826,-0.0015625526,-4.226112,-0.002129711,-0.0077650617,-0.28905663,0.006850663,-0.05457253,0.017818063,0.702515053852221,-2.4843013006258166,94.25757004485637
1729569903761175,-0.003755984,-0.0023653766,-4.2263694,-0.0020734693,-0.008605595,-0.2889128,0.0035151022,-0.052533314,0.0089891255,0.7010494303880912,-2.4935615276919334,94.26407782842003
1729569903769175,-0.0038972115,-0.0027622522,-4.2265863,-0.002032206,-0.009031738,-0.28890166,0.005157926,-0.053267922,0.0013932585,0.7008034714126468,-2.498841791994921,94.26722836795089
1729569903777175,-0.004034275,-0.003156291,-4.2268677,-0.0019828156,-0.009437423,-0.28890538,0.006173795,-0.05071063,-0.00046566126,0.7008892105327784,-2.504443616952335,94.27028297586749
1729569903785175,-0.0041672573,-0.00354756,-4.2272115,-0.0019219673,-0.009836382,-0.2889216,0.0076060384,-0.049869876,-0.002026558,0.7010908832944597,-2.5104379380251145,94.27328612348202
1729569903801175,-0.0043960335,-0.0043450017,-4.2280836,-0.0017960565,-0.010621627,-0.288968,0.007869421,-0.049077787,-0.0029001383,0.7020954926824358,-2.522769571698636,94.27942784139269
1729569903809175,-0.0051340903,-0.0049297963,-4.227726,-0.0018824624,-0.011045543,-0.2888132,-0.010800737,-0.052989457,0.019349158,0.7027446062174706,-2.529232301136548,94.2826101249162
1729569903817175,-0.0058528003,-0.005507297,-4.2274475,-0.0019623907,-0.011442972,-0.28865647,-0.009991039,-0.049678724,0.019591302,0.7035058204656259,-2.5356583145265463,94.28600379129843
1729569903825175,-0.006552688,-0.0060776942,-4.2272363,-0.0020375024,-0.011830466,-0.28849563,-0.009388953,-0.048436686,0.02010539,0.7040590433345294,-2.5422362675979735,94.28942680660643
1729569903841175,-0.007898009,-0.0071980003,-4.227037,-0.0021628623,-0.012574265,-0.2882022,-0.007834998,-0.04648743,0.018339604,0.7048081562056305,-2.5562159180790363,94.29599341527036
1729569903849175,-0.008544581,-0.007748258,-4.2270446,-0.0022579818,-0.0129462285,-0.2881032,-0.011889933,-0.046495464,0.012375413,0.7049337969097113,-2.563556518675092,94.29918627012063
1729569903857175,-0.009174515,-0.008292168,-4.2271223,-0.0023162386,-0.013297157,-0.2880545,-0.0072820983,-0.043866105,0.006087124,0.7047445757551827,-2.5707174746237174,94.30229555356148
1729569903865175,-0.009787444,-0.008833786,-4.2272677,-0.0023674124,-0.013631218,-0.28803146,-0.0063967304,-0.04175759,0.0028796492,0.7042106002661663,-2.577477218027999,94.30525282653986
1729569903881175,-0.010966011,-0.009897845,-4.2277565,-0.0024580718,-0.014238458,-0.28804907,-0.00566621,-0.037952498,-0.0011008233,0.7021123757362382,-2.590560301567727,94.31083738327324
1729569903889175,-0.011532436,-0.010420562,-4.2280836,-0.0024852387,-0.014529634,-0.28806657,-0.0033958638,-0.036397018,-0.0021867454,0.70040219124259,-2.5972541287880513,94.3135482763686
1729569903897175,-0.012084135,-0.010937174,-4.228472,-0.0025109139,-0.014803678,-0.2880721,-0.0032093956,-0.03425544,-0.00069290394,0.6981285748019207,-2.6042458391790366,94.31614329485731
1729569903905175,-0.012621463,-0.011447773,-4.228921,-0.0025255582,-0.015074668,-0.28809124,-0.0018305435,-0.03387383,-0.0023916364,0.6955505893409569,-2.611340361375743,94.31858834862496
1729569903921175,-0.013654297,-0.012451627,-4.2299943,-0.0025179938,-0.015604643,-0.28817898,0.00047277714,-0.03312342,-0.005483627,0.6896004440042289,-2.625952588206871,94.3230818121699
1729569903929175,-0.014150407,-0.012945009,-4.230615,-0.0025030952,-0.015840216,-0.2882244,0.0018623249,-0.029446555,-0.005677342,0.6863305716881196,-2.6333521390264574,94.32521962499916
1729569903937175,-0.014870452,-0.013390093,-4.231126,-0.0026320843,-0.016076595,-0.2882282,-0.016123638,-0.029547371,-0.00047683713,0.6826906252230756,-2.6410164713509374,94.32726882990552
1729569903945175,-0.01556036,-0.013824948,-4.231679,-0.002747032,-0.01629078,-0.28821623,-0.014368474,-0.026773194,0.0014975666,0.6788849429530599,-2.648765678628603,94.32961381386977
1729569903961175,-0.016891075,-0.014682379,-4.2329507,-0.002941974,-0.016662456,-0.28817248,-0.012183867,-0.023229744,0.0027343628,0.6701683352131015,-2.6640462909387326,94.33121033853469
1729569903969361,-0.017532662,-0.0151049765,-4.233666,-0.0030297074,-0.016848825,-0.28812557,-0.010717491,-0.022766775,0.0057303756,0.6653366919883121,-2.6715251293387907,94.3318743717969
1729569903977361,-0.018158969,-0.015523606,-4.2344327,-0.0031167849,-0.017019011,-0.28807437,-0.010884686,-0.021273268,0.0064000483,0.6602114063185266,-2.6788258067304667,94.33242829006402
1729569903985361,-0.01877023,-0.015938219,-4.235249,-0.0031622704,-0.017176334,-0.28801095,-0.005685695,-0.01966534,0.007927418,0.6548382381157644,-2.6859393455675895,94.33302968374339
1729569904001361,-0.019948563,-0.016755208,-4.237025,-0.0032207184,-0.017422356,-0.2877866,-0.0036529962,-0.015376368,0.014021992,0.6434140127997628,-2.699833846919028,94.33373036940996
1729569904009361,-0.020516284,-0.01715748,-4.237963,-0.0032428433,-0.017541401,-0.28761753,-0.0027656204,-0.014880671,0.02113357,0.637219434973759,-2.70651159754482,94.33388445992968
1729569904017361,-0.02107013,-0.017555691,-4.238946,-0.003249094,-0.017649064,-0.28744882,-0.0007813214,-0.013457843,0.021088867,0.6309276322538763,-2.712901340381234,94.3338736210912
1729569904025361,-0.021614753,-0.01795588,-4.239972,-0.0032392845,-0.017746482,-0.28726146,0.0012261734,-0.012177275,0.023420898,0.6243859765300854,-2.71910115189725,94.33373772683342
1729569904041361,-0.022663899,-0.018743444,-4.2421474,-0.0031869744,-0.017889606,-0.28676134,0.0032693786,-0.008945237,0.03125705,0.6109203395690296,-2.7311286292901955,94.3340695708849
1729569904049361,-0.023168853,-0.019130921,-4.2432933,-0.0031235525,-0.017944884,-0.2864748,0.007927737,-0.0069097145,0.035818666,0.60401662104309,-2.736858850236624,94.33414478868553
1729569904057361,-0.023661071,-0.01951414,-4.2444773,-0.0030768753,-0.017987581,-0.28616455,0.0058346484,-0.0053371764,0.038780272,0.5969986261998641,-2.7423933602278914,94.33398688743848
1729569904065361,-0.02409485,-0.01967808,-4.2446365,-0.002914669,-0.01799117,-0.28559732,0.020275794,-0.00044866462,0.07090345,0.5898667491504921,-2.7476507410601,94.33381379750912
1729569904081361,-0.024924884,-0.020010037,-4.2451386,-0.0025276723,-0.017956022,-0.28433505,0.024187291,0.0021967571,0.07889233,0.5749981691513135,-2.7579288026605,94.33293870882662
1729569904089361,-0.025321389,-0.02017764,-4.2454777,-0.00231601,-0.017934198,-0.28367013,0.026457796,0.0027280764,0.083114944,0.5677643963336767,-2.762888579301351,94.33239482490994
1729569904097361,-0.025705798,-0.020346217,-4.2458725,-0.0020886979,-0.017906245,-0.28298745,0.028414011,0.0034940892,0.08533522,0.5606154349850235,-2.7676994328542657,94.33187061750083
1729569904105361,-0.026081692,-0.020492174,-4.246321,-0.001851324,-0.017829545,-0.28231886,0.029671732,0.0095875,0.083573155,0.5537309893585457,-2.7724494032754357,94.3311743899569
1729569904121361,-0.026798071,-0.020786386,-4.247375,-0.001355765,-0.017657472,-0.2809997,0.030972432,0.010754563,0.08244812,0.5401346969436592,-2.7819055938326707,94.32688892607032
1729569904129361,-0.027138827,-0.020934401,-4.24796,-0.001090643,-0.017556086,-0.28037414,0.033140253,0.012673204,0.07819384,0.5338321488236027,-2.7862139116083258,94.32477923090914
1729569904137361,-0.027468149,-0.021082731,-4.2485933,-0.0008099695,-0.01743582,-0.279747,0.035084184,0.015033175,0.078391284,0.5279109051169871,-2.790013433150219,94.3226053155449
1729569904145361,-0.027786106,-0.021231337,-4.2492743,-0.0005154965,-0.017342769,-0.27914676,0.036809128,0.0116315195,0.07503107,0.5224104961361029,-2.7934458348765814,94.32028612925389
1729569904161361,-0.028388603,-0.021529518,-4.250773,8.20057e-05,-0.017165186,-0.27794304,0.037343882,0.011098919,0.07523224,0.5122584636748632,-2.799262691000267,94.31550773528379
1729569904169361,-0.028673477,-0.021678885,-4.2515883,0.00039003068,-0.017055405,-0.27733523,0.03850312,0.013722572,0.075977296,0.5075522707894355,-2.801881140468328,94.31302781589345
1729569904177361,-0.028958447,-0.021830156,-4.2524457,0.0006971873,-0.016946638,-0.2767359,0.038394578,0.013595912,0.07491559,0.5030572774466185,-2.8041756276084424,94.3104923054066
1729569904185361,-0.029358748,-0.021557359,-4.252445,0.00092703744,-0.016584285,-0.2759441,0.028731264,0.045294173,0.098973505,0.4987734885918666,-2.80612072025946,94.30820857651521
1729569904201361,-0.030121652,-0.021036034,-4.25263,0.0013693777,-0.015881334,-0.27441305,0.027646266,0.043934442,0.095691524,0.49137159005313186,-2.809868590837368,94.30255146746832
1729569904209361,-0.03048473,-0.020786814,-4.252812,0.001610246,-0.01550873,-0.27365533,0.030108538,0.04657544,0.0947155,0.48804784454372296,-2.811291835980373,94.29970367202252
1729569904217361,-0.030835837,-0.020544687,-4.253051,0.0018478036,-0.015149643,-0.27289948,0.029694695,0.044885904,0.094480805,0.48519687820549556,-2.812315462314158,94.29671036104843
1729569904225361,-0.031175083,-0.020309405,-4.2533455,0.002117512,-0.014790381,-0.2721726,0.033713557,0.044907674,0.09085982,0.48265476338204333,-2.812938613983552,94.2937571926348
1729569904241361,-0.03181903,-0.019858122,-4.254096,0.0026334804,-0.014084428,-0.27093062,0.032248016,0.044122104,0.077623874,0.47873289610009395,-2.812413123579163,94.28794018007909
1729569904249361,-0.032110132,-0.019636529,-4.2545314,0.0029344233,-0.0137505755,-0.27035376,0.037617862,0.041731514,0.07210672,0.4774735154384211,-2.8113993273882496,94.28493970340831
1729569904257361,-0.03239043,-0.019420953,-4.2550178,0.0032149341,-0.013420135,-0.2698145,0.035063855,0.041305084,0.06740913,0.47656768524412946,-2.8100049316632907,94.28125244892117
1729569904265361,-0.032660212,-0.019211112,-4.255554,0.0035048216,-0.013095088,-0.26931062,0.036235925,0.040630806,0.06298348,0.4760343452629797,-2.8083581577996997,94.27756341737047
1729569904281361,-0.033169072,-0.018807992,-4.256772,0.0040862295,-0.012465268,-0.26832768,0.036337994,0.039363742,0.06143376,0.4759153171842683,-2.8039010240394866,94.27010655591434
1729569904289361,-0.033408564,-0.018614255,-4.2574506,0.0043706098,-0.012153612,-0.26784438,0.035547532,0.03895699,0.06041303,0.47620817047673314,-2.801192389175738,94.26637333808306
1729569904297361,-0.03363849,-0.018425453,-4.2581735,0.0046401364,-0.011854844,-0.26734647,0.033690825,0.037346035,0.06223842,0.4767564044996846,-2.7982903636663803,94.26274192024566
1729569904305361,-0.033859104,-0.018241461,-4.258918,0.004914292,-0.011559397,-0.2668573,0.034269467,0.036930896,0.06114691,0.47738121522464855,-2.7951844777555626,94.25917846115314
1729569904321361,-0.0342112,-0.017821277,-4.258652,0.0055328915,-0.011025315,-0.26544762,0.03866246,0.033380114,0.08810497,0.47908274325420264,-2.7886581693340515,94.2523872749146
1729569904329361,-0.034371074,-0.017615683,-4.2586155,0.0058611697,-0.010762614,-0.2647527,0.04103477,0.03283762,0.08686631,0.4800465517819801,-2.785292027297118,94.24841065090426
1729569904337361,-0.034522776,-0.017415509,-4.2586403,0.006178352,-0.010503075,-0.26407084,0.039647795,0.032442387,0.08523091,0.4810724804556406,-2.7817194652861033,94.24448936665894
1729569904345361,-0.034666426,-0.017220667,-4.258725,0.00650037,-0.010260533,-0.2634379,0.040252224,0.030317808,0.07911771,0.48210734902834257,-2.7781114408009064,94.24049965805972
1729569904361361,-0.03493029,-0.016846841,-4.2590685,0.007118332,-0.009824337,-0.2622858,0.038622644,0.027262198,0.072006136,0.48412688258463477,-2.7701197186231155,94.23289361981504
1729569904369361,-0.035050783,-0.016667772,-4.2593055,0.0074250856,-0.009620159,-0.2617433,0.03834418,0.025522312,0.06781146,0.4850867882393702,-2.7658373163007837,94.2292174316214
1729569904377361,-0.03516384,-0.01649385,-4.259597,0.007728501,-0.009434256,-0.26124448,0.037926946,0.023237893,0.062353905,0.4861078784035003,-2.7614812058507763,94.22567033625224
1729569904385361,-0.035269536,-0.016324962,-4.2599416,0.008039719,-0.009238255,-0.26077902,0.038902275,0.024500068,0.05818158,0.48734279963974986,-2.7569560819824614,94.22217100425672
1729569904401361,-0.03544974,-0.016015945,-4.2607865,0.0086504305,-0.008909107,-0.25999102,0.03816944,0.02057175,0.049250197,0.4898804767377698,-2.747651809505494,94.21529517221649
1729569904409361,-0.035529446,-0.01586866,-4.261285,0.008952298,-0.008777591,-0.25961772,0.037733465,0.016439473,0.046662983,0.4912407220164165,-2.7431260970791898,94.2118853279044
1729569904417361,-0.03560237,-0.015726168,-4.2618313,0.009251116,-0.008638873,-0.25927407,0.037352204,0.01733983,0.04295632,0.4928195139477705,-2.7389589693946257,94.20855910029715
1729569904425361,-0.0356687,-0.015588309,-4.2624035,0.009537858,-0.008518369,-0.25895113,0.03584276,0.015062978,0.040367242,0.49462587412460546,-2.7350824702684826,94.20543191666053
1729569904441361,-0.035665013,-0.015087636,-4.2636027,0.010193787,-0.008154447,-0.2582404,0.04099554,0.022745108,0.044420358,0.49865699894022003,-2.7273374159486363,94.19944708176315
1729569904449361,-0.035597533,-0.014729599,-4.2642274,0.010538533,-0.007937867,-0.25782204,0.043093342,0.027072499,0.05229562,0.5005250452262417,-2.723321845555967,94.1962654029885
1729569904457361,-0.03552617,-0.014380936,-4.264896,0.01088367,-0.0077422378,-0.25738245,0.043142118,0.024453677,0.05494803,0.5023071514265224,-2.719253294911373,94.19309738467011
1729569904465361,-0.035454288,-0.014035,-4.2656064,0.011222174,-0.007539813,-0.25695458,0.04231301,0.025303101,0.05348399,0.5039368652272864,-2.7151146698674986,94.19008016804861
1729569904481361,-0.035299096,-0.013369864,-4.2671485,0.011880815,-0.0071687307,-0.25610742,0.04116504,0.023192639,0.052947547,0.5068078474389379,-2.7067729303781816,94.18424406316578
1729569904489361,-0.03521594,-0.013050245,-4.267955,0.012186495,-0.0069964235,-0.2556608,0.038209952,0.021538405,0.055827197,0.5082686973442281,-2.702600586408432,94.18144588241434
1729569904497361,-0.03512922,-0.012738968,-4.268799,0.0124983415,-0.0068252296,-0.2552209,0.038980853,0.02139923,0.054989006,0.5096745166625004,-2.6983936405651523,94.17884016456921
1729569904505361,-0.035038833,-0.012435803,-4.26968,0.012827956,-0.006659764,-0.25479063,0.041201826,0.020683218,0.053782012,0.5111584689305029,-2.6941025195198125,94.17637767574244
1729569904513361,-0.03494478,-0.012140611,-4.2705975,0.013145679,-0.0065120524,-0.2543683,0.039715316,0.018463936,0.052791085,0.5126817259235334,-2.689734916576546,94.17399046875411
1729569904529361,-0.03474604,-0.011573554,-4.272535,0.013774536,-0.0062489845,-0.25344792,0.039303556,0.016441742,0.057524066,0.5162435470420188,-2.6813241197629902,94.16935423785816
1729569904537361,-0.034632135,-0.011306478,-4.2735534,0.014111155,-0.0061536394,-0.25296444,0.042077385,0.011918134,0.06043538,0.5183006218005158,-2.677325368356546,94.16714712306202
1729569904545361,-0.034514774,-0.011046889,-4.274576,0.014439974,-0.0060702055,-0.25245878,0.041102406,0.010429241,0.063207,0.5205905356658228,-2.673436032094639,94.16476804315644
1729569904561361,-0.033666994,-0.010863082,-4.2757354,0.015268837,-0.0060022427,-0.25123593,0.051803943,0.0042476747,0.076428056,0.525890579964869,-2.666253121527707,94.16032908738171
1729569904569361,-0.032951217,-0.010930904,-4.2758956,0.015762826,-0.0060205236,-0.25052747,0.06174866,-0.0022851164,0.08855759,0.5287319255081797,-2.662706980887212,94.15818489177042
1729569904577361,-0.03224627,-0.010998145,-4.2761083,0.016245963,-0.0060536074,-0.24978837,0.060392074,-0.0041354797,0.09238719,0.5318158707040611,-2.659183927191549,94.15602024989388
1729569904585361,-0.031551905,-0.011064946,-4.276372,0.016696222,-0.006091456,-0.24904548,0.056282382,-0.0047310605,0.09286217,0.5349691957655893,-2.6557237033883663,94.15395208503237
1729569904601361,-0.030196678,-0.011196301,-4.2770457,0.01759747,-0.0061823055,-0.24767587,0.056328017,-0.0056780986,0.085600644,0.5416740074652154,-2.649144732280137,94.15021404600293
1729569904609361,-0.029535163,-0.011261167,-4.2774305,0.018032921,-0.0062441337,-0.24700423,0.05443138,-0.0077285217,0.083955,0.545589489299742,-2.6461843135256786,94.14840802515943
1729569904617361,-0.02888291,-0.011326095,-4.277861,0.01845372,-0.0063257874,-0.24635154,0.0525997,-0.010206712,0.08158571,0.5498397095081032,-2.6435730398849118,94.14672649554392
1729569904625361,-0.028239686,-0.011391265,-4.278337,0.018857393,-0.0064099105,-0.24570656,0.050459288,-0.010515388,0.080622725,0.5544125234228341,-2.641246594354002,94.14522425869971
1729569904633361,-0.02760525,-0.011456748,-4.2788563,0.019251797,-0.006515114,-0.24506383,0.049300488,-0.013150449,0.080341466,0.5594521204134182,-2.6392325387648237,94.14375736046871
1729569904641361,-0.026979383,-0.011522737,-4.279418,0.019628098,-0.0066163572,-0.2444312,0.04703761,-0.012655392,0.07907859,0.5648492483652936,-2.637558221325832,94.14244247311179
1729569904657361,-0.025752608,-0.011656159,-4.280664,0.020335972,-0.0067997165,-0.24323146,0.04424213,-0.011459953,0.074983574,0.5767203911908872,-2.634827738340816,94.14003414375212
1729569904665361,-0.025151199,-0.01172373,-4.2813196,0.020684993,-0.006916172,-0.24263597,0.04362757,-0.01455692,0.07443689,0.5833474212935793,-2.634052546360238,94.138941687059
1729569904681361,-0.023975017,-0.011827008,-4.282746,0.021352584,-0.0070840046,-0.24148573,0.041724414,-0.010489544,0.07188972,0.5977743280720139,-2.6330805656970107,94.13713530788617
1729569904689361,-0.023939496,-0.011718304,-4.2829804,0.021469023,-0.007102126,-0.24081947,0.014554941,-0.0022651511,0.08328258,0.6054687017332453,-2.633136119638422,94.13636074785562
1729569904697361,-0.02389846,-0.011613854,-4.283264,0.021574998,-0.007109999,-0.2401687,0.013246899,-0.0009841751,0.08134543,0.6134088639262094,-2.6339963513704814,94.13592503304825
1729569904705361,-0.023852147,-0.011513483,-4.283595,0.021673875,-0.007106228,-0.23953967,0.012359581,0.00047142382,0.078629695,0.6215775187518475,-2.635373877192448,94.13554560033522
1729569904721361,-0.02374443,-0.011324586,-4.2843943,0.021845544,-0.0071215634,-0.23828146,0.010729301,-0.0009584764,0.07863808,0.6381386089893586,-2.6388024210145544,94.13504982288164
1729569904729361,-0.023683464,-0.011235924,-4.2848334,0.021944225,-0.0071284324,-0.23767357,0.012335134,-0.00085862115,0.07598661,0.6463785550735351,-2.640482081886171,94.13507545866354
1729569904737361,-0.023618018,-0.0111509105,-4.285316,0.022007767,-0.0071242396,-0.23708636,0.007942785,0.0005241018,0.07340126,0.6543389138894554,-2.6420649522683766,94.13522532747042
1729569904745361,-0.023543164,-0.011054697,-4.28584,0.022075873,-0.007113863,-0.23653665,0.00851322,0.0012970994,0.06871298,0.6619705034429432,-2.643565134065199,94.13540099614038
1729569904761361,-0.0233823,-0.010872969,-4.287011,0.022140231,-0.0070929476,-0.2354685,0.004022382,0.0013071984,0.066759065,0.675512386056324,-2.6464802482472134,94.13438954818643
1729569904769361,-0.023296785,-0.010787483,-4.287656,0.022165477,-0.007095424,-0.23497409,0.0031557863,-0.0003095483,0.061802562,0.6816025071096913,-2.6480137681490454,94.13413458983474
1729569904777361,-0.023208119,-0.010705433,-4.288338,0.022184018,-0.0070977923,-0.23451732,0.0023175962,-0.00029604416,0.057095658,0.6875241086590401,-2.64953532432655,94.13378974234111
1729569904785361,-0.023116428,-0.01062665,-4.2890286,0.02221156,-0.0070762136,-0.23405786,0.0034426337,0.0026973428,0.057432797,0.6931624649472324,-2.65085645796581,94.13357496158547
1729569904801361,-0.022924619,-0.010478665,-4.2905183,0.02221473,-0.0070832386,-0.2331447,0.00019813886,-0.00043906036,0.057072375,0.7036565787598377,-2.6527780122897733,94.13339625035506
1729569904809361,-0.022624798,-0.010864053,-4.2897973,0.022345735,-0.007252824,-0.23233257,0.016375678,-0.021198181,0.101516016,0.7082093417631954,-2.6535504382262216,94.13346083144262
1729569904817361,-0.022317145,-0.011242588,-4.289148,0.022485103,-0.0074301367,-0.2315127,0.017421087,-0.022164078,0.10248459,0.7121801341574281,-2.6539662450297277,94.13336584797031
1729569904825361,-0.022010718,-0.011613846,-4.2885675,0.022625657,-0.007602485,-0.23066968,0.017569168,-0.021543527,0.10537728,0.7156098882230817,-2.654213250576349,94.1333324885283
1729569904841361,-0.021401534,-0.012335504,-4.2876077,0.022889726,-0.0079155,-0.22912593,0.016504316,-0.01956342,0.09648408,0.7219584410942084,-2.65450576845449,94.13344283646526
1729569904849361,-0.021098804,-0.0126862265,-4.2872024,0.022997882,-0.00807961,-0.22844857,0.013519543,-0.020513775,0.08467025,0.7249387510556519,-2.654656621382915,94.13355318443753
1729569904857361,-0.020797433,-0.013030581,-4.2868605,0.023090705,-0.008215273,-0.2278573,0.011602881,-0.01695787,0.0739079,0.7278406536345344,-2.6551506328015044,94.13373320848423
1729569904865361,-0.020497382,-0.013368625,-4.2865806,0.02318026,-0.008350459,-0.22733176,0.011194264,-0.016898265,0.06569363,0.7307868093897035,-2.6559151543222668,94.13402358084636
1729569904881361,-0.019901048,-0.014026902,-4.286202,0.02335794,-0.008623547,-0.22647612,0.011105089,-0.017067999,0.05347747,0.7366944890643091,-2.6584452581242677,94.13464212275503
1729569904889361,-0.0195994,-0.014349212,-4.2861013,0.023437956,-0.00875849,-0.22616372,0.010001938,-0.016867882,0.039050356,0.7394925711543139,-2.6602074236796707,94.1350733288325
1729569904897361,-0.01929901,-0.014666104,-4.286058,0.023508858,-0.008884595,-0.22592255,0.008862698,-0.0157631,0.030145047,0.7422726960467724,-2.662172582053226,94.13546361760619
1729569904905361,-0.018999899,-0.014977726,-4.286045,0.023577532,-0.009006855,-0.22574864,0.008584233,-0.015282537,0.02173893,0.7449590611289321,-2.664330477847256,94.1359304045097
1729569904921361,-0.018405551,-0.01558581,-4.286185,0.023673726,-0.009226863,-0.22550008,0.0060121524,-0.013750511,0.015535391,0.7505484231636405,-2.6686076055842847,94.13712387523859
1729569904929361,-0.018110361,-0.015882598,-4.286335,0.023715388,-0.009333269,-0.22542578,0.0052077225,-0.013300682,0.009287149,0.7531729462838571,-2.6708984188399993,94.13775557605527
1729569904937361,-0.01783013,-0.016130298,-4.2852674,0.023780705,-0.009366313,-0.22504847,0.008164672,-0.004130532,0.047164034,0.7555494231947851,-2.6733445787807946,94.13841505191698
1729569904945361,-0.017550487,-0.016373765,-4.284282,0.023826852,-0.0094000725,-0.2247117,0.0057683787,-0.004219939,0.042095777,0.7576151566672653,-2.6762099767372334,94.13910279668437
1729569904961361,-0.016985828,-0.016839508,-4.28255,0.023907421,-0.009454967,-0.22413033,0.0050355443,-0.003430934,0.03633555,0.7610503044510084,-2.68287541831166,94.14068930839257
1729569904969361,-0.01670459,-0.017066687,-4.2817783,0.023939598,-0.009480803,-0.22391163,0.0040221494,-0.0032294772,0.027338041,0.7626867009447891,-2.6864904216596317,94.14144165188132
1729569904977609,-0.016424133,-0.017290065,-4.2810817,0.023968646,-0.009489784,-0.22378477,0.0035218173,-0.0010888389,0.01537992,0.76434885314657,-2.690099880058861,94.14220838028072
1729569904985609,-0.016144473,-0.017509699,-4.280459,0.024000743,-0.009488852,-0.22373708,0.0040121377,0.00011653173,0.0059623267,0.7663880493146187,-2.693801017658911,94.14313271150982
1729569905001609,-0.015587724,-0.017938029,-4.279431,0.024021897,-0.009509301,-0.2238496,0.0013221287,-0.0012780655,-0.0070324163,0.7709588469927651,-2.7012238399818016,94.14509782326493
1729569905009609,-0.015310824,-0.018146915,-4.2790217,0.024032414,-0.009502889,-0.22398461,0.0013145617,0.00080151943,-0.016877428,0.7734454901790776,-2.704832273674479,94.14624846458631
1729569905017609,-0.015034877,-0.018352361,-4.278681,0.024034645,-0.009506408,-0.22420117,0.0002789311,-0.00043993347,-0.02706982,0.7762932375586322,-2.708285584901132,94.14741176366427
1729569905025609,-0.014755759,-0.018548071,-4.278383,0.024019672,-0.009474882,-0.22445482,-0.0018717254,0.003940775,-0.031705946,0.7793069707442531,-2.711585481809713,94.14856800193654
1729569905041609,-0.014201263,-0.018929243,-4.2779846,0.023981515,-0.009404889,-0.22503538,-0.0023847679,0.0043745385,-0.03628526,0.7855432961956166,-2.71804726289356,94.15059939478292
1729569905049609,-0.013925876,-0.019114839,-4.2778807,0.023965318,-0.009357437,-0.22535291,-0.0020246953,0.005931593,-0.0396911,0.7887435138989798,-2.721189487389564,94.15162483439931
1729569905057609,-0.013651739,-0.019297067,-4.277838,0.023942338,-0.009291187,-0.22571021,-0.0028724314,0.008281204,-0.0446625,0.7918010448556898,-2.724032988591597,94.15277229591955
1729569905065609,-0.013857147,-0.019619009,-4.276479,0.023688711,-0.009333225,-0.22579901,-0.031703383,-0.0052547543,-0.0110995015,0.7947321721053304,-2.7267008471431002,94.15400259286093
1729569905081609,-0.01424141,-0.020245438,-4.27404,0.023180306,-0.009395342,-0.22604933,-0.03177533,-0.0038823343,-0.015645288,0.8006553323217073,-2.7309801174388784,94.15710229909789
1729569905089609,-0.014411587,-0.020565351,-4.2729373,0.02294145,-0.009452848,-0.22621417,-0.029857036,-0.00718818,-0.020604579,0.8035702533174698,-2.733037916381544,94.15855643289561
1729569905097609,-0.014573923,-0.020879727,-4.271922,0.02268607,-0.0094953,-0.2264337,-0.03192248,-0.005306559,-0.027440486,0.8063264785972266,-2.7351072579415012,94.16040079796001
1729569905105609,-0.014728784,-0.021188695,-4.2709928,0.022437729,-0.009540424,-0.22672565,-0.03104261,-0.0056404383,-0.036494806,0.808793730461122,-2.737365716265398,94.16234846112768
1729569905121609,-0.015017113,-0.021790681,-4.2693863,0.021951959,-0.009579111,-0.22750972,-0.030360648,-0.0024179462,-0.049004328,0.8125786089119267,-2.74234677621461,94.166171024283
1729569905129609,-0.015151135,-0.022084037,-4.2687054,0.021699319,-0.009606004,-0.22800685,-0.031579982,-0.0033616086,-0.062141564,0.8138164571196873,-2.744799918465073,94.16800351567468
1729569905137609,-0.015278732,-0.02237249,-4.2681036,0.021462936,-0.0096352305,-0.22853574,-0.029547837,-0.0036533454,-0.066110864,0.8144691917692993,-2.747212464840333,94.16992467405328
1729569905145609,-0.0154001815,-0.022656208,-4.2675586,0.021215273,-0.0096479785,-0.2291145,-0.030957859,-0.0015934928,-0.07234514,0.8146478487642138,-2.749848962635985,94.17179884662694
1729569905161609,-0.015614327,-0.023212828,-4.2666974,0.020732438,-0.0096432585,-0.23040773,-0.030177178,0.00029499643,-0.080826685,0.813925865427201,-2.7555553399602237,94.17589827025698
1729569905169609,-0.015707515,-0.023486,-4.2663774,0.02051668,-0.009642838,-0.2311264,-0.026969703,5.2619722e-05,-0.089833505,0.8133410330129687,-2.7583444315759036,94.1776294994972
1729569905177609,-0.015795613,-0.023754722,-4.2661295,0.020285869,-0.009643799,-0.23184359,-0.02885144,-0.000120140605,-0.0896491,0.8127168340689749,-2.7611170754876855,94.17931175176379
1729569905185609,-0.016071599,-0.023212546,-4.2645435,0.019993287,-0.009241747,-0.23225197,-0.036572803,0.05025649,-0.05104765,0.8120066298636308,-2.763840363020819,94.18101521916957
1729569905201609,-0.016596843,-0.022166234,-4.261682,0.019414268,-0.008470726,-0.2330711,-0.036188632,0.048188783,-0.05119573,0.8100742823603921,-2.7698726894057937,94.1846222021083
1729569905209609,-0.016846813,-0.021661356,-4.260385,0.019125158,-0.0081024375,-0.2334692,-0.036138806,0.046036087,-0.049762424,0.8085711392257341,-2.772711177887774,94.18640828290607
1729569905217609,-0.017088668,-0.021168191,-4.259185,0.01884979,-0.0077256383,-0.2339385,-0.034420982,0.047099892,-0.058662143,0.8066925866826176,-2.7753876930652064,94.18808350532127
1729569905225609,-0.017325122,-0.020697296,-4.258079,0.018559625,-0.0073728827,-0.23447816,-0.03627059,0.044094454,-0.06745756,0.8044586231474183,-2.777588744020052,94.18990802442782
1729569905241609,-0.017775636,-0.019787349,-4.2561445,0.017977277,-0.0066681164,-0.23579083,-0.036396783,0.04404789,-0.08204206,0.7992678161595704,-2.7801022210111324,94.19477809942443
1729569905249609,-0.017990133,-0.019347586,-4.255312,0.01771103,-0.00633265,-0.2365311,-0.033280812,0.04193332,-0.09253248,0.7959864315430631,-2.780265483942504,94.19717250704085
1729569905257609,-0.018197598,-0.018917494,-4.254567,0.017456083,-0.005995392,-0.23732361,-0.03186846,0.042157244,-0.099064775,0.7921690698722379,-2.779688935105204,94.19955634066638
1729569905265609,-0.01839811,-0.018496707,-4.2538896,0.017220033,-0.005659275,-0.23817326,-0.02950616,0.04201458,-0.10620616,0.78799581989014,-2.778189653012873,94.20197176568321
1729569905281609,-0.018778875,-0.017681783,-4.252786,0.016777461,-0.0050113928,-0.24000493,-0.027660744,0.040492654,-0.114479095,0.779388736851573,-2.7729727388644037,94.20671805017066
1729569905289609,-0.018959379,-0.017287109,-4.252356,0.016575402,-0.0047072475,-0.24093936,-0.025257466,0.038018156,-0.11680461,0.775297183300841,-2.7695337722416506,94.20916734464502
1729569905297609,-0.019135293,-0.016898429,-4.252005,0.016392568,-0.004416392,-0.24187832,-0.022854188,0.03635691,-0.11736899,0.7712924804310818,-2.765789662908883,94.21156813376058
1729569905305609,-0.019304805,-0.01651771,-4.251731,0.016212841,-0.004112604,-0.24283616,-0.022465827,0.037973512,-0.11973082,0.7671645287649026,-2.7620137253386328,94.21391284375443
1729569905321609,-0.018103741,-0.015860653,-4.248684,0.01637054,-0.003669785,-0.24404706,0.009856186,0.027676184,-0.075681135,0.7579817766738123,-2.7533970679116915,94.21835950847334
1729569905329609,-0.017520955,-0.015542754,-4.247306,0.016450483,-0.0034651812,-0.24463247,0.009992857,0.025575485,-0.07317588,0.7529908160778962,-2.748630078509061,94.22035209825506
1729569905337609,-0.016949393,-0.015231629,-4.2460303,0.016549518,-0.0032712321,-0.2452498,0.012379372,0.024243636,-0.07716566,0.7479060845947596,-2.7435810394912847,94.22227496749
1729569905345609,-0.016388632,-0.01492726,-4.2448545,0.01664616,-0.0030889655,-0.24593782,0.012080184,0.022783322,-0.08600391,0.7429196140240825,-2.7381349905804093,94.22421601244092
1729569905361609,-0.0152979065,-0.014338556,-4.242795,0.016859334,-0.0027675484,-0.24746266,0.013323383,0.020088568,-0.09530223,0.733573165922184,-2.7263450610994386,94.22789119920161
1729569905369609,-0.014767105,-0.014054084,-4.241907,0.016970078,-0.002625129,-0.24830504,0.013842945,0.017802434,-0.105297185,0.7292015918099894,-2.720385820760054,94.22967383340222
1729569905377609,-0.014220931,-0.013773406,-4.2411113,0.017097909,-0.0024618437,-0.24916668,0.015978934,0.02041066,-0.107705586,0.7253498062475796,-2.7146214889358893,94.23146326944925
1729569905385609,-0.013684034,-0.013498942,-4.240389,0.017231137,-0.0023049645,-0.2500571,0.016653445,0.019609898,-0.11130235,0.72172189403659,-2.7090091126511315,94.23247202115151
1729569905401609,-0.012636472,-0.012968553,-4.2392077,0.017543452,-0.0020423862,-0.2519788,0.019519705,0.01641114,-0.12010708,0.7164544806909253,-2.697901321158391,94.23427785176442
1729569905409609,-0.012125,-0.012712673,-4.238745,0.017692477,-0.0019407371,-0.2529757,0.018628081,0.012706135,-0.12461095,0.7148436984402946,-2.6923371000458904,94.23512847558908
1729569905417609,-0.011621388,-0.012462962,-4.238365,0.017849198,-0.0018496024,-0.25400004,0.019590138,0.011391835,-0.12804195,0.7139289338926854,-2.68664234690749,94.23593868224239
1729569905425609,-0.01112528,-0.01221938,-4.238066,0.018007481,-0.0017672931,-0.25501555,0.01978548,0.010288669,-0.12693927,0.7136322550127496,-2.6809989028786827,94.23672110037663
1729569905441609,-0.010647953,-0.011914762,-4.236173,0.018115701,-0.0017456774,-0.256707,0.0067637297,0.0013509779,-0.10571628,0.7147977004610824,-2.669984956275203,94.23800633934508
1729569905449609,-0.010650863,-0.01184398,-4.234605,0.0181045,-0.0017881647,-0.25737807,-0.0014002434,-0.0053109103,-0.083882354,0.7164117838905696,-2.6647657326606353,94.23887309068182
1729569905457609,-0.01064881,-0.011776233,-4.2331467,0.018116841,-0.0018487367,-0.25804898,0.0015427357,-0.007571492,-0.08386373,0.7186754567075271,-2.6598943917826015,94.23893167266012
1729569905465609,-0.010641993,-0.011711611,-4.231797,0.018100677,-0.001912926,-0.2587516,-0.0020205043,-0.008023663,-0.08782744,0.721570595370721,-2.65541088630129,94.23893014825804
1729569905481609,-0.01061484,-0.011591725,-4.229412,0.01808264,-0.002057035,-0.2602816,-0.001127366,-0.009006813,-0.09562447,0.728693107877477,-2.6476353558581174,94.23873870053079
1729569905489609,-0.010594995,-0.0115364725,-4.2283726,0.018041726,-0.0021432743,-0.26112637,-0.0051141246,-0.010779913,-0.10559707,0.7327046464013178,-2.644296529437276,94.23852150316311
1729569905497609,-0.010571333,-0.0114844,-4.227432,0.01800176,-0.0022333125,-0.2620072,-0.0049958467,-0.011254771,-0.11010467,0.736660512967537,-2.6413745829321895,94.23831971310814
1729569905505609,-0.010543969,-0.011435513,-4.226576,0.01797296,-0.0023288652,-0.26294318,-0.0036000272,-0.011944095,-0.11699646,0.7404520695115601,-2.6388051987243375,94.23809772041066
1729569905513609,-0.010489692,-0.011389431,-4.225815,0.0179553,-0.0024156345,-0.2639384,-0.0022074673,-0.010846153,-0.12440234,0.7442067376141693,-2.6364219260119794,94.23784365611522
1729569905529609,-0.010372167,-0.011306717,-4.224571,0.017904675,-0.002613237,-0.26606587,-0.0031640518,-0.012350151,-0.13296679,0.7521698281546566,-2.632350672604517,94.23594375323584
1729569905537609,-0.010309251,-0.011269897,-4.2240844,0.017865386,-0.0027008483,-0.26715383,-0.0049110963,-0.010951421,-0.13599545,0.7564765163558428,-2.630837470546692,94.23485578998618
1729569905545609,-0.010243804,-0.011236025,-4.2236853,0.017826552,-0.0027787017,-0.26824412,-0.004854286,-0.00973168,-0.13628602,0.760864546329011,-2.6297458380646104,94.23372742153533
1729569905561609,-0.010211523,-0.011149775,-4.222571,0.017744193,-0.002838128,-0.270346,-0.0051474194,-0.0037141433,-0.13136677,0.7694315749434683,-2.62866360794049,94.23148205024033
1729569905569609,-0.010241002,-0.0110961115,-4.221854,0.017734258,-0.002807919,-0.27135167,-0.0012419185,0.0037761345,-0.12570992,0.7733770636316885,-2.628755912625222,94.23029559652537
1729569905577609,-0.010264737,-0.011044045,-4.2212315,0.017718056,-0.0027935633,-0.27235827,-0.002025161,0.0017944548,-0.1258254,0.7771706740629606,-2.6292240598698124,94.22907731816215
1729569905585609,-0.010283004,-0.010993533,-4.2207003,0.017690098,-0.0027550266,-0.27336666,-0.0034947877,0.0048170914,-0.12604892,0.7807137239866246,-2.6298204083486025,94.22789288047045
1729569905601609,-0.010364293,-0.010880656,-4.219903,0.017575242,-0.0026568198,-0.2753825,-0.0071785175,0.0061379247,-0.12598932,0.7874434340445553,-2.630822086406425,94.22562022133087
1729569905609609,-0.010397025,-0.0108263455,-4.219633,0.017496979,-0.0026091752,-0.27639717,-0.009782845,0.0059555746,-0.12683496,0.7905591335056578,-2.6310440881156163,94.22442138769135
1729569905617609,-0.010424659,-0.010773409,-4.219446,0.01744313,-0.0025789195,-0.2774171,-0.0067311334,0.0037819552,-0.12749061,0.793393323253697,-2.6309975083504495,94.22327660063078
1729569905625609,-0.01044726,-0.010721934,-4.219326,0.01738571,-0.0025428766,-0.2784319,-0.00717747,0.00450536,-0.12684986,0.7957638135189523,-2.630835761197764,94.22219192454662
1729569905633609,-0.010465129,-0.010671667,-4.2192855,0.017304381,-0.0024845884,-0.2794408,-0.010166083,0.007286027,-0.12611225,0.7977688049540901,-2.6307468750567407,94.2210883024622
1729569905649609,-0.010487302,-0.0105748195,-4.2194347,0.017148165,-0.0024323892,-0.28141123,-0.00976352,0.0032624518,-0.1231525,0.8010323075907295,-2.6306755097461774,94.21894217629453
1729569905657609,-0.010508089,-0.010520764,-4.219621,0.017048987,-0.002395605,-0.28239188,-0.0123972995,0.0045980266,-0.12258067,0.8022818626277006,-2.6305520093082055,94.2179883178742
1729569905665609,-0.010524542,-0.010467991,-4.2198796,0.01696431,-0.0023631563,-0.28331912,-0.01058448,0.0040560844,-0.11590495,0.8034068663134177,-2.6303383407592835,94.21680843120961
1729569905681609,-0.010544992,-0.010366353,-4.220603,0.016763153,-0.0023201995,-0.2850587,-0.012572388,0.002684799,-0.10872445,0.8052267312357001,-2.6295528954880347,94.21479692532951
1729569905689609,-0.010366506,-0.009857742,-4.220119,0.016807528,-0.002022167,-0.2856526,0.005546957,0.037254065,-0.074237585,0.8060608847982295,-2.6290178699389815,94.21381529072
1729569905697609,-0.010187303,-0.009359003,-4.219723,0.016847523,-0.0017210686,-0.28621668,0.004999339,0.03763729,-0.07050857,0.8065008963666743,-2.6287727924178443,94.21255939345798
1729569905705609,-0.010007452,-0.008869908,-4.2194123,0.01687469,-0.0014469159,-0.28672728,0.0033958347,0.03426909,-0.0638254,0.8067686759552481,-2.628339686924938,94.21144769849745
1729569905721609,-0.009646439,-0.007919674,-4.219037,0.0168848,-0.0009175808,-0.28773195,0.0006319023,0.033083443,-0.06279163,0.8070026772934065,-2.6274424945245425,94.20927128997867
1729569905729609,-0.009465324,-0.0074580675,-4.2189684,0.01691172,-0.00066279346,-0.28819558,0.003365101,0.031848416,-0.057954337,0.807171286658148,-2.6268307630908403,94.208288655051
1729569905737609,-0.009276246,-0.0070088743,-4.218976,0.016946757,-0.00041429023,-0.28864267,0.0043795444,0.031062903,-0.0558868,0.8073425873956138,-2.6258799411638267,94.2072709232062
1729569905745609,-0.009086774,-0.0065680384,-4.219043,0.016982578,-0.00017110474,-0.2890455,0.004477566,0.030398186,-0.050354745,0.8073558262279481,-2.624476999390366,94.20608021173696
1729569905761609,-0.008706697,-0.0057109976,-4.2193923,0.0170545,0.00024407488,-0.28986445,0.004495145,0.025948726,-0.051183622,0.807446967246617,-2.620286558860097,94.20405012396378
1729569905769609,-0.008516118,-0.0052945255,-4.219671,0.01708515,0.00043832618,-0.2902987,0.003831228,0.024281412,-0.0542812,0.8075983409938843,-2.6170922440965834,94.20312716782318
1729569905777609,-0.00832527,-0.004885881,-4.220017,0.01710563,0.0006090797,-0.29072285,0.0025599727,0.021344192,-0.053018328,0.8077550381887254,-2.6134193263452388,94.20219714713859
1729569905785609,-0.008134228,-0.004484961,-4.220428,0.017119557,0.00077515177,-0.29109994,0.0017408746,0.020759005,-0.047136094,0.8080576687369272,-2.6094295541611374,94.20135402409332
1729569905801609,-0.0077675795,-0.003704477,-4.22144,0.017122772,0.0010725204,-0.29186183,0.00020093283,0.018585538,-0.04761852,0.808768588963749,-2.6003033156922895,94.19973954730123
1729569905809609,-0.0076555703,-0.0035642912,-4.221404,0.017118884,0.0011000824,-0.29202354,-0.00048591752,0.003445253,-0.020213423,0.8093630019548089,-2.5953134301729057,94.19949043201467
1729569905817609,-0.0075414344,-0.0034260761,-4.2214417,0.01709498,0.0011128642,-0.29215333,-0.0029879154,0.0015977274,-0.01622364,0.8101148784089771,-2.590017173471235,94.19941128845998
1729569905825609,-0.007425352,-0.003289928,-4.221551,0.017071662,0.0011103286,-0.29227677,-0.0029148066,-0.00031695524,-0.0154301515,0.8111415372003445,-2.584707691946773,94.19937255763621
1729569905841609,-0.0071874885,-0.003024145,-4.221975,0.017020777,0.0010663152,-0.2924625,-0.00318035,-0.0027508356,-0.011608004,0.8136728961536337,-2.5739264146566767,94.19941226706048
1729569905849609,-0.0070659784,-0.0028946644,-4.222286,0.016985217,0.0010320481,-0.2925275,-0.00444497,-0.0042833854,-0.008124858,0.8151601758059122,-2.5684823957187417,94.1994013121961
1729569905857609,-0.0069429665,-0.0027676297,-4.222661,0.016937073,0.0009834457,-0.29259703,-0.006017973,-0.0060753077,-0.008691102,0.8165792931137038,-2.5630525013565344,94.19960298794419
1729569905865609,-0.006818507,-0.002643183,-4.2230816,0.01690882,0.0009132033,-0.2926561,-0.003531575,-0.008780298,-0.007383525,0.817993747256018,-2.5577538149705754,94.19978420607194
1729569905881609,-0.0065454803,-0.0023906764,-4.2241025,0.016844455,0.00077122054,-0.29276353,-0.004022848,-0.008873921,-0.0067148353,0.8208338805605145,-2.548069453848906,94.19960165158604
1729569905889609,-0.006407435,-0.0022687681,-4.2247005,0.016803203,0.00068727514,-0.29282224,-0.0051565,-0.010493174,-0.0073388214,0.8221936565442087,-2.5438220062631194,94.19921085896115
1729569905897609,-0.0062684044,-0.002149982,-4.225354,0.016776064,0.0005756457,-0.29288444,-0.0033923422,-0.013953678,-0.0077746804,0.8237143070453449,-2.540060420248078,94.19877283958789
1729569905905609,-0.00612843,-0.0020344276,-4.226063,0.01674831,0.00046693117,-0.29294258,-0.0034694092,-0.013589316,-0.007268041,0.8253502308531425,-2.536732346606721,94.19846131062175
1729569905921609,-0.0058459095,-0.0018132847,-4.2276373,0.016681263,0.0001983315,-0.2929749,-0.0041903695,-0.016787479,-0.0020191073,0.8288701363385617,-2.530937668874111,94.1979688098136
1729569905929609,-0.0057036416,-0.0017080128,-4.22848,0.016633105,3.752014e-05,-0.29296622,-0.006019836,-0.020101419,0.0010840595,0.8305620210578427,-2.528363166950767,94.19781636247876
1729569905937609,-0.0061185826,-0.0009332522,-4.228634,0.016442513,0.00022425721,-0.2927436,-0.023823928,0.023342133,0.027827917,0.8322591751207236,-2.52608500407331,94.19763839332485
1729569905945609,-0.0065192436,-0.00017602165,-4.2288537,0.016246678,0.00040562398,-0.29251847,-0.024479346,0.022670846,0.028140841,0.8338824780154483,-2.524510183323232,94.19768061792048
1729569905961609,-0.007279476,0.0012874833,-4.229481,0.015869824,0.0007212357,-0.2919632,-0.023553379,0.01972573,0.034704804,0.8373727832038689,-2.522235659259057,94.19765947438145
1729569905969609,-0.0076400344,0.0019943179,-4.229886,0.015664715,0.0008489314,-0.29169214,-0.02563861,0.015961958,0.033881515,0.8391338914056875,-2.5212060784266996,94.19771808817863
1729569905977918,-0.007988191,0.0026850603,-4.2303486,0.015471962,0.00097214105,-0.29143965,-0.023198104,0.014828459,0.030386962,0.8408084343360416,-2.520066682285825,94.19794059514564
1729569905985918,-0.0083242385,0.0033600456,-4.230851,0.015296221,0.0010727386,-0.2911984,-0.021967687,0.012574688,0.030156223,0.8420359729032053,-2.5186715482979327,94.19814189562831
1729569906001918,-0.008961501,0.0046641408,-4.232022,0.014923591,0.0012571097,-0.2906386,-0.023289349,0.011523196,0.034987926,0.8435891741238022,-2.51477714543225,94.19855487868695
1729569906009918,-0.0092542395,0.0052905474,-4.2326865,0.014747699,0.0013167288,-0.29032055,-0.021986546,0.0074523846,0.039756294,0.8437749697325759,-2.512092432737914,94.19879940154169
1729569906017918,-0.009536582,0.005902575,-4.2334023,0.014565453,0.0013745753,-0.28998587,-0.022780731,0.0072308173,0.041835006,0.8436699919506978,-2.5089364175188407,94.19876818415855
1729569906025918,-0.009808907,0.0065005207,-4.2341666,0.014388196,0.0014127367,-0.28966844,-0.022157094,0.004770176,0.039678063,0.843366956036032,-2.505264237180161,94.19872257934657
1729569906041918,-0.010324651,0.0076551465,-4.235837,0.014055801,0.0014407765,-0.28897873,-0.02077472,0.001752487,0.043107193,0.8420207543372251,-2.4963378566117327,94.19883091488528
1729569906049918,-0.0105687715,0.008212323,-4.2367196,0.013866127,0.0014232355,-0.28862342,-0.02370926,-0.0021926244,0.044412907,0.8408056760721103,-2.491285561921126,94.19883560199543
1729569906057918,-0.010804204,0.008756351,-4.2376466,0.013705733,0.0014005087,-0.28824937,-0.020049162,-0.0028408538,0.046756115,0.8394098998177295,-2.485954266899101,94.19892792548912
1729569906065918,-0.011216253,0.009435216,-4.2373037,0.013523776,0.0013846712,-0.28760254,-0.022744643,-0.001979686,0.08085369,0.8379635738323556,-2.4802800954587574,94.19908767975927
1729569906081918,-0.012060221,0.010739122,-4.2368402,0.013071879,0.0012906054,-0.2863469,-0.028243579,-0.0058791116,0.07847696,0.8347616602835636,-2.468575898470131,94.20079878361717
1729569906089918,-0.012463181,0.011367192,-4.2367163,0.012868731,0.0012374391,-0.2857047,-0.02539344,-0.0066457866,0.08027627,0.8328517261066203,-2.4627973310733324,94.20229557602977
1729569906097918,-0.012853729,0.0119797215,-4.2366605,0.012675579,0.0011650715,-0.28506756,-0.02414407,-0.00904595,0.079642974,0.8307221069349651,-2.456999133879611,94.20389537846606
1729569906105918,-0.013232305,0.01257693,-4.2366567,0.012476582,0.0010903799,-0.28446755,-0.024874577,-0.00933645,0.07500127,0.828473628698529,-2.45119861183547,94.20544643831568
1729569906121918,-0.013954978,0.013726121,-4.236844,0.012088509,0.00087091455,-0.28343895,-0.02425455,-0.013716584,0.064287335,0.8231676938836223,-2.439304960386636,94.20856922136095
1729569906129918,-0.014299743,0.014278426,-4.237033,0.011898066,0.0007370706,-0.2829777,-0.023805419,-0.016730497,0.057656314,0.8197995927597316,-2.4333237787309776,94.2101818519005
1729569906137918,-0.014633814,0.014816144,-4.2372828,0.0117296195,0.0005953643,-0.28258294,-0.021055805,-0.017713282,0.04934519,0.8160798602160894,-2.4275203680228015,94.21189824220922
1729569906145918,-0.01498917,0.015325059,-4.2375927,0.011522578,0.00040813006,-0.2822407,-0.025880173,-0.023404282,0.04278123,0.8120412894268921,-2.421796881431662,94.21353911968674
1729569906153918,-0.015333997,0.01581981,-4.2379613,0.011333948,0.0002142201,-0.28193662,-0.023578757,-0.024238745,0.038009137,0.807891834907753,-2.4160332559573168,94.21644123698006
1729569906169918,-0.015993098,0.016767677,-4.2388506,0.010978284,-0.0002007611,-0.2813684,-0.02222898,-0.025936324,0.035513192,0.7996400846612735,-2.404366149708313,94.22236912155705
1729569906177918,-0.016307792,0.017221147,-4.239369,0.010814709,-0.0004267296,-0.28111294,-0.020446952,-0.02824606,0.03193319,0.7954804408725465,-2.398433402624703,94.22542165492952
1729569906185918,-0.016635181,0.017395474,-4.2386756,0.010626436,-0.00069362565,-0.28062096,-0.023534054,-0.033362005,0.06149709,0.7911737571882137,-2.3926320635014133,94.22847416171523
1729569906201918,-0.01726163,0.017726207,-4.23754,0.010299087,-0.0012531002,-0.27969503,-0.020459352,-0.034967158,0.05787052,0.7814757710843884,-2.382181554298442,94.23450182924816
1729569906209918,-0.017561,0.017882498,-4.237093,0.010155138,-0.0015440894,-0.27924907,-0.017993618,-0.036373645,0.05574524,0.7762189407193529,-2.377466791787357,94.23755123119227
1729569906217918,-0.017855313,0.018043974,-4.236724,0.010022294,-0.0018359865,-0.2788634,-0.016605482,-0.036487136,0.048208978,0.7705795533236883,-2.373123755662713,94.24056147720076
1729569906225918,-0.018140757,0.018199254,-4.2364182,0.00990717,-0.0021186157,-0.27852172,-0.014390446,-0.03532864,0.04271045,0.7647745793565602,-2.3690665647385516,94.24329093162241
1729569906241918,-0.018685848,0.018490998,-4.236028,0.009675912,-0.002749668,-0.27797833,-0.01445366,-0.039440766,0.03396161,0.7535063154389658,-2.3621169011509777,94.24857482395308
1729569906249918,-0.018945929,0.01862735,-4.235941,0.009562787,-0.0030758777,-0.2777976,-0.014140619,-0.04077621,0.022590159,0.7479775884173363,-2.35931329041345,94.25110932198933
1729569906257918,-0.019198032,0.018757302,-4.2359233,0.009462743,-0.0034097685,-0.27765298,-0.012505449,-0.041736346,0.018078834,0.7422864531978842,-2.3568820321275448,94.25359735732613
1729569906265918,-0.0194422,0.018880935,-4.2359734,0.009380356,-0.0037393111,-0.27755305,-0.010298331,-0.041192833,0.012490897,0.73632451986867,-2.3546571386472483,94.25618209218719
1729569906281918,-0.0199073,0.019108774,-4.2362723,0.009255109,-0.0044743274,-0.27752534,-0.00782794,-0.045938518,0.0017322599,0.7244030214447447,-2.3509900776054042,94.26098240228967
1729569906289918,-0.020120606,0.019197444,-4.2365017,0.009223478,-0.004858326,-0.2775676,-0.00395393,-0.04799984,-0.005282461,0.7186672350223349,-2.3495741836109554,94.26338381784593
1729569906297918,-0.020326499,0.01927981,-4.236794,0.009206207,-0.0052422006,-0.2776366,-0.0021589221,-0.0479843,-0.008624047,0.7132559272012482,-2.348413143061915,94.26612256590832
1729569906305918,-0.02052514,0.01935589,-4.237148,0.009186504,-0.005632271,-0.27771562,-0.002462766,-0.04875881,-0.009879469,0.7080822849408954,-2.347488797393808,94.2688272250382
1729569906321918,-0.020772139,0.0192736,-4.2341576,0.009212062,-0.0065672197,-0.27707464,0.0015973345,-0.05843429,0.04006177,0.698427534940623,-2.3461756593596004,94.274074963884
1729569906329918,-0.020887574,0.019225884,-4.232822,0.009233695,-0.00703295,-0.27677765,0.0027042113,-0.058216274,0.037122518,0.6936189223671425,-2.3457793897053802,94.27671928103578
1729569906337918,-0.020997684,0.019173743,-4.231589,0.00928024,-0.0074955826,-0.27648732,0.005818088,-0.057829075,0.036291778,0.6888054572398019,-2.3456317766176036,94.27924872965077
1729569906345918,-0.021102412,0.019117247,-4.2304482,0.009344482,-0.007952922,-0.2762745,0.0080302125,-0.05716743,0.026602296,0.6841860452952733,-2.3458849191872333,94.28163451422063
1729569906361918,-0.021318914,0.018993188,-4.228461,0.009399402,-0.008861372,-0.27613324,0.0034325055,-0.056778137,0.008828938,0.6754260217326786,-2.3476278657693257,94.28662353625624
1729569906369918,-0.021419391,0.018924495,-4.2276096,0.009465702,-0.00933253,-0.2761744,0.00828749,-0.058894742,-0.0051446254,0.6714523648671642,-2.349208247451507,94.28922626845234
1729569906377918,-0.021514628,0.018851303,-4.2268505,0.009531067,-0.009782586,-0.2763287,0.008170609,-0.056257002,-0.019289553,0.6677510357904531,-2.3510721089248983,94.29179620134411
1729569906385918,-0.02160475,0.01877374,-4.226182,0.009597461,-0.01021494,-0.27655184,0.008299248,-0.05404418,-0.027891247,0.6644206669951821,-2.3532645258994638,94.29427070686737
1729569906401918,-0.021769898,0.018605452,-4.225108,0.0097612,-0.011103465,-0.27719545,0.010233721,-0.055532843,-0.04022568,0.6581517563977967,-2.3585416789411235,94.29892841439107
1729569906409918,-0.021844886,0.01851465,-4.2246895,0.009862389,-0.011557161,-0.27763408,0.01264864,-0.056711953,-0.05482882,0.6554265521569468,-2.3618282939021182,94.30104268251175
1729569906417918,-0.021914894,0.0184193,-4.2243547,0.009954105,-0.012016608,-0.27813184,0.011464464,-0.057430934,-0.062219795,0.6527259636072448,-2.365437491015686,94.30311785494435
1729569906425918,-0.021978028,0.018318567,-4.224102,0.010036458,-0.0124547295,-0.27864718,0.01029414,-0.054765143,-0.06441772,0.6502220154289656,-2.369096045126762,94.30503445747331
1729569906441918,-0.021956218,0.018397102,-4.2230396,0.010252681,-0.01317036,-0.27959478,0.013513898,-0.044726882,-0.05922466,0.6451556560479041,-2.376363193610616,94.30917070986254
1729569906449918,-0.021874858,0.018570803,-4.222246,0.010382562,-0.01342335,-0.28000444,0.016235163,-0.031623755,-0.051207837,0.6428093769491838,-2.380261466921761,94.31073891777007
1729569906457918,-0.021792455,0.018734748,-4.221546,0.0105187185,-0.013675902,-0.28042012,0.01701957,-0.03156904,-0.051960345,0.6405731043180751,-2.3842612247206194,94.31217028531175
1729569906465918,-0.021708861,0.01888921,-4.2209306,0.010664889,-0.0139173465,-0.2808316,0.018271267,-0.030180555,-0.05143508,0.6384391098227815,-2.3884539011207506,94.31340397486744
1729569906481918,-0.021538094,0.019170493,-4.2199655,0.01094341,-0.014417077,-0.28174534,0.017407583,-0.031233182,-0.057108697,0.6343698216037326,-2.396918335550917,94.31570018562965
1729569906489918,-0.021450983,0.019297587,-4.219612,0.011077285,-0.014679527,-0.2822374,0.016734352,-0.032806184,-0.061508264,0.6328230777470235,-2.400936941417863,94.3166313857583
1729569906497918,-0.021368252,0.01941327,-4.2193418,0.011215384,-0.014911667,-0.28278166,0.017262412,-0.029017566,-0.06803125,0.631548757683814,-2.404775040431881,94.31753429473844
1729569906505918,-0.021284157,0.019520631,-4.219153,0.011367122,-0.015148679,-0.28332692,0.018967198,-0.029626418,-0.06815791,0.6306251179504763,-2.40834119654283,94.31837585721983
1729569906513918,-0.021198634,0.01961977,-4.2190437,0.011516662,-0.015392685,-0.28389457,0.018692575,-0.030500812,-0.070955604,0.630042046526977,-2.41147881492562,94.3192012164293
1729569906529918,-0.02102371,0.019794138,-4.219046,0.01179413,-0.015871726,-0.28507718,0.01734175,-0.02994004,-0.073913485,0.6297380193062679,-2.4169520931604658,94.32041887940028
1729569906537918,-0.02093423,0.019869693,-4.2191544,0.011921232,-0.01611819,-0.28567478,0.015887665,-0.030807916,-0.07469952,0.6299094932190602,-2.4194635704475265,94.3208652008166
1729569906545918,-0.020843484,0.019937715,-4.219335,0.012059839,-0.016350023,-0.28628233,0.017325975,-0.028979264,-0.07594377,0.6301966219143047,-2.4217567181981736,94.32118123077609
1729569906561918,-0.020845417,0.01984765,-4.2191324,0.012243241,-0.01695701,-0.28732193,0.011462601,-0.03793661,-0.06497465,0.6313442277866219,-2.4262289442939937,94.32169560396056
1729569906569918,-0.020943366,0.01967685,-4.218765,0.012274419,-0.017341413,-0.2877603,0.0038972355,-0.048050422,-0.05479529,0.6324632744734612,-2.4281649053561525,94.32162680010501
1729569906577918,-0.021036286,0.01950309,-4.2184825,0.012296299,-0.017719105,-0.28817502,0.0027350613,-0.04721153,-0.051841136,0.6340509208586258,-2.4299468379797973,94.32234554548533
1729569906585918,-0.021124303,0.019326253,-4.218275,0.012321894,-0.018123899,-0.28857923,0.0031993256,-0.050599217,-0.05052611,0.6360287755874916,-2.4317176638940077,94.3230299506345
1729569906601918,-0.02128611,0.018963337,-4.218099,0.012375709,-0.018892724,-0.28937438,0.003363413,-0.048051585,-0.04969723,0.6406105766822308,-2.43519886361038,94.32413084528325
1729569906609918,-0.021360192,0.018777274,-4.2181263,0.012391445,-0.01926919,-0.28976354,0.0019670697,-0.04705833,-0.048644837,0.6430732507352136,-2.436954314586072,94.32449987337594
1729569906617918,-0.02142996,0.018588182,-4.218228,0.012408348,-0.019638902,-0.2901775,0.0021128217,-0.046213854,-0.05174428,0.6456814087204032,-2.4386693904771946,94.3248143671226
1729569906625918,-0.02149542,0.018396027,-4.2184024,0.012446182,-0.019998714,-0.29060447,0.004729256,-0.044976592,-0.05337223,0.6482707597669265,-2.4404660779547704,94.32507381079826
1729569906633918,-0.021562908,0.018183239,-4.218647,0.012462181,-0.020379456,-0.29098824,0.0019998988,-0.047592677,-0.04797056,0.6507416342392348,-2.442447136978472,94.32521736737345
1729569906649918,-0.021685118,0.017749028,-4.2193303,0.012562699,-0.021128455,-0.29178703,0.0062823524,-0.04681246,-0.049924474,0.6555555081591544,-2.446734207420786,94.3261292069357
1729569906657918,-0.02173994,0.017527571,-4.2197657,0.012598669,-0.021501897,-0.29219365,0.004496309,-0.046680212,-0.050827857,0.6577021981929237,-2.449276076857087,94.32648011081235
1729569906665918,-0.02179084,0.017303113,-4.2202654,0.012629313,-0.021883197,-0.29257503,0.0038305295,-0.047662526,-0.047672536,0.6597291821812392,-2.4523080390439898,94.32683282123375
1729569906681918,-0.021881076,0.016845066,-4.221449,0.012709304,-0.022621447,-0.2932794,0.0049993973,-0.04614063,-0.044023614,0.6631549520840169,-2.459482699046269,94.32730145762118
1729569906689918,-0.022009995,0.017185567,-4.221115,0.012685599,-0.022736648,-0.29332167,-0.002963119,-0.014400109,-0.005282461,0.6646657983470152,-2.463560242389972,94.32729416051127
1729569906697918,-0.022133496,0.017510423,-4.2208633,0.012699025,-0.02284664,-0.2933537,0.0016782432,-0.013748881,-0.004004687,0.6660546043646245,-2.4680541856090157,94.32695964533596
1729569906705918,-0.022243084,0.017822046,-4.220683,0.012691969,-0.02297648,-0.29336882,-0.0008819624,-0.016230159,-0.0018887221,0.6672277750332644,-2.472801951110805,94.32675594161594
1729569906721918,-0.022447739,0.01840034,-4.220552,0.012669095,-0.023242917,-0.29336244,-0.0014296382,-0.01665228,0.00039860603,0.6690643551313157,-2.4824981447396497,94.32541572780478
1729569906729918,-0.022542961,0.018668016,-4.220597,0.012663953,-0.023352185,-0.2933594,-0.00064272893,-0.013658543,0.00037997958,0.6695500078421134,-2.487258994357073,94.32473905431793
1729569906737918,-0.022633603,0.018921932,-4.220713,0.012650917,-0.023478504,-0.29336184,-0.0016294651,-0.015789876,-0.0003054738,0.6697350189738319,-2.491819675378608,94.32391110897206
1729569906745918,-0.022719791,0.019162366,-4.2208986,0.012644134,-0.023606014,-0.2933736,-0.00084785273,-0.015938655,-0.0014714896,0.6696663443096526,-2.4961214330693116,94.32311569781879
1729569906761918,-0.022878895,0.019604497,-4.2214694,0.0126531385,-0.023840012,-0.29342175,0.00056275167,-0.014624907,-0.0030081717,0.6686241929669675,-2.504209886630043,94.32124354892112
1729569906769918,-0.02295193,0.019806929,-4.221842,0.012661195,-0.023951435,-0.29346782,0.001007109,-0.013927928,-0.0057592983,0.6677847798523285,-2.507754516136184,94.32028167378053
1729569906777918,-0.023020806,0.01999738,-4.222277,0.012648154,-0.024071023,-0.29352444,-0.0016301636,-0.014948425,-0.007078051,0.6667399687729069,-2.510664832708098,94.31935838034244
1729569906785918,-0.023090845,0.020170901,-4.222773,0.012628849,-0.024182972,-0.29358572,-0.0024131732,-0.013993586,-0.0076591964,0.6655254491558356,-2.513235881238397,94.31829744889374
1729569906801918,-0.023218835,0.020484474,-4.2239423,0.012642456,-0.024425747,-0.29368865,0.0008504721,-0.015173456,-0.006433576,0.6627021282637922,-2.5168433481809425,94.31704112504974
1729569906809918,-0.022908561,0.020219631,-4.2227287,0.012810757,-0.024787012,-0.29333746,0.021037644,-0.0451582,0.043898817,0.6612186515596519,-2.518039999621128,94.31625686755628
1729569906817918,-0.022602608,0.019952532,-4.2216177,0.012968969,-0.025135055,-0.29297805,0.0197764,-0.043505333,0.044926997,0.6597527238095583,-2.518548486014835,94.3157715456314
1729569906825918,-0.022300893,0.019683206,-4.2206044,0.013110527,-0.025476478,-0.29262275,0.017694779,-0.042677853,0.044412907,0.6584433789952605,-2.518690135831286,94.3151894935256
1729569906841918,-0.021709273,0.019138338,-4.2188663,0.013451194,-0.026124954,-0.29199943,0.021291722,-0.040529758,0.038957223,0.6560089777243281,-2.518906776756831,94.3138185517384
1729569906849918,-0.021418858,0.01886284,-4.218137,0.013622371,-0.026441708,-0.29178217,0.021397019,-0.039594244,0.027157364,0.6548985661298774,-2.5191020527304606,94.31312716314899
1729569906857918,-0.021135436,0.018578563,-4.2174983,0.013788029,-0.026770376,-0.29162806,0.020707257,-0.04108343,0.019263476,0.6538714434191725,-2.5194812813186953,94.31237364610239
1729569906865918,-0.020855121,0.018292196,-4.2169476,0.013960754,-0.027095847,-0.29154623,0.021590617,-0.04068389,0.010229646,0.652916908667757,-2.5203012700465304,94.31208178113849
1729569906881918,-0.020303337,0.017712722,-4.216104,0.014283279,-0.027763259,-0.29161906,0.020157836,-0.041713238,-0.0045523047,0.6519029828321203,-2.522945192404941,94.3113021423897
1729569906889918,-0.020031707,0.017419571,-4.215803,0.014426253,-0.028077887,-0.29174402,0.01787173,-0.039328586,-0.015620141,0.6517083897206262,-2.5245368896692475,94.31086209005696
1729569906897918,-0.019762844,0.017124137,-4.2155833,0.014559363,-0.028399605,-0.29195297,0.016638776,-0.04021474,-0.026118008,0.6515843839634515,-2.5264676531153163,94.31051194867952
1729569906905918,-0.019496612,0.016826345,-4.215443,0.0147084575,-0.028723203,-0.29222858,0.018636812,-0.040449664,-0.034451485,0.6516504281040315,-2.5288750758058365,94.3100534968315
1729569906921918,-0.018987805,0.01621818,-4.2153955,0.014961119,-0.029340029,-0.2929163,0.01579133,-0.038551632,-0.042982396,0.6528163056050835,-2.5348387434017257,94.3090659616244
1729569906929918,-0.018745024,0.015907917,-4.215485,0.015070369,-0.029645279,-0.2932944,0.013656215,-0.038156286,-0.047262754,0.6540175453543234,-2.5382377449723887,94.30911109403637
1729569906937918,-0.018381678,0.015513198,-4.2144766,0.015147086,-0.030037327,-0.29343683,0.009589712,-0.04900596,-0.017803162,0.6555811166196137,-2.5421296544108336,94.30906257840843
1729569906945918,-0.018024167,0.015117137,-4.2135687,0.015234987,-0.03041198,-0.29360318,0.010987626,-0.046831552,-0.020794569,0.6576062779958567,-2.546125625243368,94.30854789635818
1729569906961918,-0.017325891,0.014320761,-4.2120442,0.015408187,-0.031140883,-0.2939243,0.010824994,-0.045556456,-0.02007,0.662727523648855,-2.5546993886060867,94.30728723550344
1729569906969918,-0.016984666,0.013920555,-4.2114224,0.015499894,-0.031486623,-0.29413044,0.011463299,-0.043217555,-0.025767831,0.6656737747573465,-2.5591393766137234,94.30660338409317
1729569906977918,-0.016648492,0.013519184,-4.210892,0.015589489,-0.0318041,-0.29440328,0.011199386,-0.039684583,-0.034105033,0.6687538933979639,-2.563553313816568,94.30588492576834
1729569906985918,-0.016317228,0.01311666,-4.210451,0.015686534,-0.032127544,-0.29471982,0.012130708,-0.040430572,-0.039566305,0.671857934564042,-2.568058498201234,94.30513237356837
1729569907001918,-0.015598508,0.012362015,-4.2098274,0.015923966,-0.032679357,-0.29547793,0.01483946,-0.034488272,-0.047381964,0.6782880482073862,-2.5774043601181873,94.3016327472846
1729569907009918,-0.0152467,0.0119827865,-4.2096395,0.016040679,-0.03293078,-0.2959215,0.014589167,-0.031427946,-0.055447217,0.6813665090401206,-2.5823287950381975,94.2987621672106
1729569907017918,-0.014899796,0.011602448,-4.2095327,0.016134856,-0.033172633,-0.29638502,0.011772149,-0.03023166,-0.057939436,0.6843735602687968,-2.5876639059587263,94.29596230613161
1729569907025918,-0.014557875,0.0112210885,-4.209505,0.016203288,-0.03341168,-0.2968555,0.008553965,-0.029881017,-0.058811154,0.687170317685833,-2.593235563385258,94.29308793525053
1729569907041918,-0.013888115,0.01045544,-4.209681,0.016387159,-0.033859827,-0.2978178,0.011491938,-0.028009059,-0.060142945,0.692822818513514,-2.6051312634487833,94.28706792572044
1729569907049918,-0.013560012,0.010071336,-4.2098804,0.016470164,-0.03406074,-0.29831415,0.010375631,-0.025114043,-0.062044706,0.6955950522652007,-2.6111982739674917,94.28407202494516
1729569907057918,-0.013236304,0.009686516,-4.210152,0.016551914,-0.034248594,-0.29883093,0.010218703,-0.0234819,-0.064596534,0.6983846602204877,-2.617303773718771,94.28108265800742
1729569907065918,-0.012649994,0.009406034,-4.209956,0.016719991,-0.03441497,-0.29921982,0.021009704,-0.020796897,-0.04861131,0.7012567649146079,-2.623466779728207,94.27804553422273
1729569907081918,-0.011502933,0.008817012,-4.2098074,0.017020646,-0.034732517,-0.30002952,0.018790945,-0.019846715,-0.050606202,0.7074128523517137,-2.6356742963968665,94.27217727880142
1729569907089918,-0.0109445155,0.008517942,-4.2098513,0.01717168,-0.03487835,-0.3004324,0.018879306,-0.018229242,-0.050362196,0.7106435105675623,-2.6419040583590676,94.2692842733303
1729569907097918,-0.010395814,0.008216035,-4.209971,0.017308485,-0.035021644,-0.30081668,0.01710048,-0.017911661,-0.04803389,0.7140643542243829,-2.6480505196594604,94.26628239710996
1729569907105918,-0.009856515,0.007911382,-4.2101645,0.017449712,-0.0351548,-0.3011728,0.017653452,-0.016644597,-0.04451349,0.7178084721557885,-2.6542989333077727,94.26336205934673
1729569907121918,-0.008805284,0.0072947997,-4.2107644,0.01768067,-0.035363205,-0.301865,0.0144348005,-0.013025244,-0.043263655,0.7256439337404705,-2.667173846265524,94.25738644565968
1729569907129918,-0.008293054,0.00698327,-4.2111616,0.017766122,-0.035460696,-0.30219397,0.0106815705,-0.012186355,-0.04111975,0.7297298317456404,-2.6734621005638526,94.25439884583776
1729569907137918,-0.007785409,0.006663388,-4.2116256,0.017871775,-0.03554675,-0.30251953,0.013206619,-0.010756775,-0.040695067,0.734088571008945,-2.6796300869004455,94.25134807082402
1729569907145918,-0.007286153,0.006341834,-4.2121534,0.017961247,-0.035615377,-0.3028321,0.011184019,-0.008578412,-0.039070845,0.7388402124362505,-2.6856951114582013,94.24856497622591
1729569907161918,-0.006311964,0.0056939158,-4.213397,0.018142378,-0.035762515,-0.3034039,0.011320691,-0.009196112,-0.035738572,0.7489316419917256,-2.6970589938856593,94.2432083228193
1729569907169918,-0.005836591,0.005367826,-4.2141085,0.018229496,-0.035805978,-0.30367544,0.010889721,-0.00543287,-0.03394112,0.7541522062070779,-2.702430068917473,94.24066280440344
1729569907177918,-0.005368786,0.005040583,-4.214878,0.018296612,-0.035839304,-0.303924,0.008389587,-0.004165806,-0.03106892,0.7595286093359415,-2.7074530797908642,94.23808165183357
1729569907185918,-0.0052243997,0.0047773127,-4.2152233,0.018299801,-0.03583162,-0.3039678,0.00039860603,0.0009606592,-0.0054761763,0.7651152563288552,-2.712331234543108,94.23559645147091
1729569907201918,-0.004933005,0.004243971,-4.2161083,0.01826849,-0.0358206,-0.30399835,-0.0019569416,0.000688713,-0.0019092112,0.7768146347773028,-2.721676474156142,94.23148066812442
1729569907209918,-0.0047768103,0.0039718198,-4.216645,0.018238261,-0.035790246,-0.30397695,-0.0037786083,0.003794208,0.0026747582,0.7827242917730458,-2.726105306239263,94.22952883030189
1729569907217918,-0.0046202317,0.0036978265,-4.217241,0.018204473,-0.035769355,-0.30392295,-0.004223548,0.0026114283,0.0067502256,0.7887205394109353,-2.730305083226663,94.22723955328772
1729569907225918,-0.004463388,0.0034221015,-4.217895,0.018161511,-0.03573673,-0.30384555,-0.0053702383,0.0040782616,0.009674579,0.7949113247866234,-2.734358713179556,94.22496415122978
1729569907241918,-0.0041493666,0.0028661212,-4.2193694,0.018049099,-0.035634477,-0.30358815,-0.0070257806,0.006390735,0.016087666,0.8074923936625351,-2.742168987703531,94.22073331184087
1729569907249918,-0.0039924,0.0025862001,-4.22018,0.01799002,-0.03556733,-0.30345663,-0.007384922,0.008393545,0.016439706,0.8136831093671456,-2.7459044751866464,94.21863466908468
1729569907257918,-0.0038355086,0.002305106,-4.2210426,0.017920705,-0.035516933,-0.30329275,-0.008664327,0.0062994654,0.02048537,0.819677997486713,-2.7494846221414844,94.21663880928925
1729569907265918,-0.0036788406,0.002022877,-4.2219553,0.017841846,-0.035456456,-0.30311257,-0.00985735,0.007559545,0.022523103,0.8255016172771471,-2.7529891335649315,94.21471037914723
1729569907281918,-0.0033567601,0.0014425695,-4.2239237,0.017673718,-0.035359606,-0.3026844,-0.010507995,0.0060531306,0.026760621,0.8359376654280289,-2.7594316918627597,94.21144905577728
1729569907289918,-0.0031965917,0.0011510891,-4.224977,0.017558638,-0.03529764,-0.30245128,-0.014384975,0.0077458094,0.029139219,0.8406020036544603,-2.7623361860916087,94.21027301921548
1729569907297918,-0.0030371167,0.0008589951,-4.226074,0.017463086,-0.03521712,-0.30217913,-0.011943978,0.010064802,0.03401935,0.8449044778284482,-2.7649656655472232,94.20919927257776
1729569907305918,-0.0028783786,0.0005664567,-4.2272043,0.017346574,-0.035126485,-0.30189002,-0.0145640215,0.011329538,0.03613904,0.8487143734708243,-2.7673906469714797,94.20820735780185
1729569907321918,-0.0029932754,0.0013988093,-4.2269325,0.017101482,-0.034238048,-0.30065084,-0.015318276,0.05552731,0.077448785,0.854947758866376,-2.7725806111147064,94.2068269157019
1729569907329918,-0.0030430313,0.0017926856,-4.2269053,0.016979001,-0.033811748,-0.29998574,-0.015310011,0.05328748,0.083137296,0.8574897808436072,-2.7753584169781944,94.20654851079166
1729569907337918,-0.0030879169,0.0021722678,-4.2269473,0.016846647,-0.033405825,-0.2992877,-0.016544247,0.050740313,0.08725374,0.8597202317292715,-2.7781112271063453,94.20632491384758
1729569907345918,-0.0031287018,0.00255639,-4.227057,0.016702294,-0.032967273,-0.29862362,-0.018044142,0.05481904,0.083010636,0.8617149666356833,-2.780722791226565,94.20604675730458
1729569907361918,-0.0031972087,0.0032846206,-4.2274723,0.016414216,-0.03212717,-0.2973845,-0.01800491,0.052506335,0.07744506,0.8648404844678753,-2.78403549629649,94.20437865424638
1729569907369918,-0.0032252753,0.003629528,-4.2277684,0.01627058,-0.031705093,-0.2967941,-0.017954502,0.052759886,0.073801726,0.8661119107800725,-2.784625937482401,94.20366738337464
1729569907377918,-0.0032494625,0.0039622793,-4.228125,0.016114376,-0.03128982,-0.2962312,-0.01952541,0.051909123,0.07035956,0.8673459107264675,-2.7844863941714406,94.20291975724027
1729569907385918,-0.0032700028,0.004283345,-4.2285414,0.015953567,-0.0308753,-0.29570088,-0.020101199,0.05181506,0.06629154,0.8684894333271779,-2.783720936364583,94.2022587852477
1729569907401918,-0.0033005434,0.004891764,-4.229545,0.015658192,-0.03008386,-0.29476258,-0.018460909,0.049464986,0.058643516,0.8702226267963035,-2.780635817350945,94.20121220048675
1729569907409918,-0.003310787,0.005179857,-4.23013,0.015505815,-0.02969528,-0.29433447,-0.019047176,0.04857243,0.05351379,0.8707511811825467,-2.7784527110643635,94.20074500060547
1729569907417918,-0.0032815202,0.0054082125,-4.230769,0.015406973,-0.029370913,-0.2939092,-0.012355274,0.040545825,0.05315989,0.8709686943208017,-2.7759236379103442,94.20042758865222
1729569907425918,-0.0032496513,0.005627137,-4.231452,0.015278184,-0.029063633,-0.29349217,-0.01609861,0.03841007,0.052127983,0.8708209509513323,-2.772963977425525,94.20076663468254
1729569907441918,-0.0032281852,0.0066282153,-4.231614,0.014917348,-0.028280063,-0.2924239,-0.022552267,0.04897313,0.066766515,0.869869807758876,-2.765549686439758,94.20159731807085
1729569907449918,-0.0032391397,0.0073969965,-4.231125,0.014692251,-0.027813856,-0.29174563,-0.028137116,0.05827588,0.084783874,0.8694869584309461,-2.7611737037351793,94.20137619249977
1729569907457918,-0.003248332,0.008143954,-4.230716,0.014463563,-0.027347073,-0.29109734,-0.028585898,0.05834782,0.08103623,0.8689948891468329,-2.7562656473791916,94.20115306475955
1729569907465918,-0.0032559931,0.008869731,-4.2303863,0.014229239,-0.026909506,-0.2904866,-0.029290559,0.054695874,0.076342374,0.8683484086560762,-2.7508238144066377,94.20105169156787
1729569907481918,-0.0032670521,0.010259774,-4.229953,0.013749893,-0.026068524,-0.2893709,-0.029959133,0.0525614,0.06973185,0.8664294042249371,-2.7390786344147835,94.20081159391671
1729569907489918,-0.0032887612,0.010930671,-4.2298455,0.013512738,-0.025661804,-0.2889215,-0.029644346,0.050839964,0.05617365,0.8655688798918242,-2.732723369938895,94.20072110805368
1729569907497918,-0.0033088727,0.011582179,-4.2298093,0.013286278,-0.025294313,-0.2885326,-0.028307548,0.04593632,0.04861131,0.8646592336300919,-2.7258984589473,94.20112163123234
1729569907505918,-0.0033275227,0.012214729,-4.2298427,0.013060732,-0.024920624,-0.28818792,-0.028193228,0.04671118,0.043086704,0.8636881817881641,-2.7186620313671814,94.20150775925428
1729569907513918,-0.0033447575,0.012828856,-4.229944,0.012836436,-0.024565853,-0.28786665,-0.028036999,0.044346318,0.040158626,0.862493666612455,-2.7110053335112627,94.20198153361133
1729569907521918,-0.0033606903,0.013424821,-4.230112,0.012606772,-0.024246924,-0.28760272,-0.028708016,0.03986619,0.03299117,0.8609210057145824,-2.703047179950667,94.20250228621258
1729569907537918,-0.0033888977,0.014563583,-4.2306414,0.012171379,-0.023670023,-0.28714505,-0.027212022,0.03605627,0.02860464,0.8577845191317411,-2.6866703387625326,94.20352887919275
1729569907545918,-0.003401399,0.0151073085,-4.2309947,0.011939933,-0.023368634,-0.28693753,-0.028930835,0.037673626,0.025939194,0.8562407708684054,-2.6784016581288173,94.20417285910717
1729569907561918,-0.0039509214,0.015783967,-4.2309737,0.011257875,-0.022988541,-0.2863526,-0.042628612,0.023755826,0.036558136,0.8530500345270062,-2.661845447175652,94.20494534524799
1729569907569918,-0.0044840155,0.015922597,-4.2306185,0.010814155,-0.02289734,-0.28596708,-0.055464912,0.011400086,0.04819035,0.8516835177964223,-2.6534367644481685,94.20451900322388
1729569907577918,-0.0050048567,0.016053528,-4.230341,0.01038214,-0.022832477,-0.28559455,-0.054001924,0.0081078615,0.046566125,0.8503752412913969,-2.6449398927692993,94.20403079408335
1729569907585918,-0.0055139153,0.016176859,-4.2301393,0.009951793,-0.022765703,-0.28524393,-0.053793423,0.008346746,0.043828037,0.8488434048914718,-2.6364061144635986,94.20357011835709
1729569907601918,-0.006497764,0.01640139,-4.229955,0.009144105,-0.02265304,-0.2846845,-0.050480474,0.0070414967,0.034963712,0.8450264797964108,-2.619635088920303,94.20275282376554
1729569907609918,-0.0069733374,0.016502604,-4.229968,0.00875278,-0.022630192,-0.28447622,-0.04891562,0.0028559004,0.026036052,0.8425528071118792,-2.611555308673507,94.20238913385091
1729569907617918,-0.007438369,0.016596373,-4.2300496,0.008378974,-0.022628877,-0.2843223,-0.04672573,0.00016437842,0.019241124,0.8393183306717641,-2.6038014179655002,94.20195851252481
1729569907625918,-0.007889316,0.01668359,-4.230199,0.0080328435,-0.02261869,-0.2842559,-0.043266334,0.0012733507,0.008299947,0.8353586895411398,-2.596327259475054,94.2015228309558
1729569907633918,-0.008330267,0.016763432,-4.230414,0.0076780664,-0.022649417,-0.28425786,-0.044347133,-0.003840774,-0.00024586916,0.8308327382044344,-2.58906552472441,94.20106012966997
1729569907649918,-0.009183232,0.016901005,-4.2310376,0.0070200954,-0.022716247,-0.2843085,-0.041123185,-0.0041768653,-0.0031646339,0.8207659046747512,-2.575469460672463,94.20017184107239
1729569907657918,-0.0095958365,0.016958868,-4.231443,0.0067014773,-0.02276405,-0.28435963,-0.03982725,-0.005975365,-0.0063925977,0.8152033408263757,-2.56915029098391,94.19974650311985
1729569907665918,-0.0099994475,0.017009541,-4.2319045,0.0064030816,-0.022818882,-0.28440794,-0.03729947,-0.006854068,-0.006038695,0.8093482270256057,-2.563399907931283,94.19936358338704
1729569907681918,-0.010780511,0.017089076,-4.233002,0.005830763,-0.023004489,-0.2844928,-0.035769917,-0.011600437,-0.0053029503,0.7972671185674345,-2.5533956618264284,94.19846057014608
1729569907689918,-0.011771663,0.016999984,-4.232821,0.00532302,-0.02321898,-0.2843174,-0.06346788,-0.026811378,0.021923332,0.7912197161725825,-2.549028763617821,94.19800084277927
1729569907697918,-0.012729002,0.016912865,-4.2327137,0.0048678084,-0.023420827,-0.28414005,-0.05690142,-0.025230924,0.0221692,0.7851760201009172,-2.5449543727117083,94.197020903683
1729569907705918,-0.013664841,0.01682023,-4.2326784,0.004429296,-0.023608845,-0.2839467,-0.054814037,-0.023502156,0.024169682,0.7789958626902336,-2.541259229641286,94.19474625497267
1729569907721918,-0.015474545,0.016618382,-4.2328167,0.003585405,-0.024024738,-0.28356695,-0.052743196,-0.025993329,0.023733823,0.7660728505847765,-2.53501201556446,94.19027017942003
1729569907729918,-0.016349243,0.016509155,-4.232984,0.0032047466,-0.024254339,-0.28340155,-0.047582287,-0.0287001,0.02067536,0.7591892036205974,-2.5324635710994063,94.18795865094731
1729569907737918,-0.017204294,0.01639453,-4.233216,0.0028641864,-0.024460543,-0.28323185,-0.042570025,-0.025775515,0.021211801,0.751938438189152,-2.530157412647689,94.1857367715565
1729569907745918,-0.018040156,0.016274475,-4.233511,0.002523689,-0.024704987,-0.28306976,-0.042562168,-0.030555528,0.020261852,0.7444488118888474,-2.528298430578222,94.18356437632477
1729569907761918,-0.019655835,0.016018163,-4.234282,0.0019335495,-0.025169615,-0.2827742,-0.03688372,-0.029039219,0.018471852,0.7286024646528202,-2.5257085510219572,94.17948444363536
1729569907769918,-0.020412236,0.015891954,-4.234756,0.0016815064,-0.025398992,-0.28264043,-0.03150539,-0.02867216,0.016722828,0.7201751246535814,-2.524972950964637,94.17739812209857
1729569907777918,-0.021151273,0.01576051,-4.2352853,0.0014638925,-0.025614427,-0.28250346,-0.027201734,-0.026929423,0.017121434,0.7112693268612056,-2.524659525217198,94.17442846001305
1729569907785918,-0.021873247,0.015623874,-4.2358646,0.0012537421,-0.02583648,-0.28237927,-0.026268795,-0.02775667,0.015523284,0.7020444245181259,-2.5246597388679883,94.17147392936012
1729569907801918,-0.023267461,0.015335205,-4.2371836,0.0008853694,-0.02628573,-0.28215918,-0.023023296,-0.028078094,0.0137556335,0.6828278493316016,-2.5256841948124045,94.16551354607805
1729569907809918,-0.024059428,0.014945689,-4.2375827,0.00068993616,-0.02656986,-0.2819393,-0.02442915,-0.035516217,0.02748519,0.6726909286452937,-2.526791120902648,94.16265894269803
1729569907817918,-0.024832848,0.0145571185,-4.238039,0.00051895634,-0.026849195,-0.28171903,-0.021372477,-0.03491691,0.027533619,0.6623290431786153,-2.5280687553551484,94.15979776311971
1729569907825918,-0.025587974,0.014169362,-4.2385516,0.00038208909,-0.027131196,-0.28152213,-0.017108405,-0.035250094,0.024612991,0.6519240596084446,-2.5295728617408035,94.15701914758304
1729569907841918,-0.027088016,0.013399668,-4.239739,9.025773e-05,-0.027680166,-0.28108767,-0.018239459,-0.03431062,0.02715364,0.6310622845739893,-2.533578408109558,94.15152065713146
1729569907849918,-0.027833093,0.013017528,-4.2404046,-4.865005e-05,-0.027957164,-0.28085962,-0.017363472,-0.03462471,0.02850592,0.6208984489318035,-2.5362667972824418,94.14974748340616
1729569907857918,-0.028560797,0.01263584,-4.2411203,-0.00018411523,-0.02823138,-0.28061542,-0.016933147,-0.034277093,0.030525027,0.6106728709326926,-2.5394841973445716,94.14815382118287
1729569907865918,-0.029271344,0.0122546,-4.2418847,-0.00027841664,-0.028490193,-0.2803659,-0.011787676,-0.032351583,0.031188129,0.6005064238705503,-2.5432222797562263,94.14649294947067
1729569907881918,-0.030641804,0.01149345,-4.243553,-0.00039489748,-0.029002855,-0.27978945,-0.0072800517,-0.032041337,0.036029145,0.5803921517767733,-2.5511990710749495,94.14346079077691
1729569907889918,-0.03130212,0.011113446,-4.244454,-0.0004275195,-0.02925438,-0.2794957,-0.004077752,-0.03144075,0.036720186,0.5703263847882859,-2.5556646856880456,94.1420844136016
1729569907897918,-0.031946283,0.010733682,-4.245398,-0.00044660576,-0.02952632,-0.27920532,-0.0023857828,-0.033992343,0.036295503,0.5603122448620435,-2.5601843709731393,94.14075551369919
1729569907905918,-0.032574456,0.010354101,-4.246376,-0.00043456486,-0.029771723,-0.2789353,0.0015051118,-0.030675435,0.03375113,0.550338552707032,-2.5647899624883426,94.13958467987612
1729569907921918,-0.033762567,0.009589937,-4.248454,-0.0003590631,-0.030266691,-0.27831608,0.00471886,-0.030935507,0.03870204,0.5308000704056878,-2.5742236143186386,94.13696848945511
1729569907929918,-0.034333806,0.009208333,-4.249551,-0.00028348545,-0.030470971,-0.27795812,0.009447205,-0.025535,0.044744458,0.5213029750029498,-2.578978604681717,94.13551754442298
1729569907937918,-0.03489458,0.008972046,-4.249558,-0.00018107882,-0.030690417,-0.27725628,0.012800829,-0.027430708,0.08773058,0.5120378657316648,-2.5837366040679157,94.1341825171187
1729569907945918,-0.035440434,0.008731811,-4.2496285,-6.669489e-05,-0.030910533,-0.27655336,0.014297991,-0.027514527,0.08786469,0.5027856436819675,-2.5884993218352017,94.13296414856754
1729569907961918,-0.03648825,0.008240141,-4.2499514,0.00022150877,-0.03129452,-0.27512518,0.018012727,-0.02399925,0.08926167,0.4849410604165882,-2.598000026186442,94.13087032681521
1729569907969918,-0.03699046,0.007989225,-4.250197,0.00038978204,-0.0314594,-0.2744192,0.021034157,-0.020609701,0.088248394,0.4763673769850172,-2.603007015436842,94.12997515626282
1729569907977918,-0.03747847,0.007735145,-4.250499,0.00058331084,-0.03160926,-0.27373493,0.024191098,-0.018732622,0.08553266,0.467993238202991,-2.6080729960442257,94.12922417318087
1729569907985918,-0.037958976,0.007454645,-4.250855,0.00077952695,-0.031765133,-0.27306557,0.024527011,-0.0194842,0.08367001,0.4597266644727173,-2.61315865428982,94.1285416256963
1729569908001918,-0.038878337,0.006886241,-4.2517242,0.0012219341,-0.032060083,-0.27180618,0.027650446,-0.018434366,0.07871165,0.44389286815518053,-2.6230031216539986,94.13021187681016
1729569908009918,-0.03931745,0.006598528,-4.2522354,0.0014621369,-0.032205593,-0.27126366,0.030025344,-0.01818873,0.067815185,0.436687010363043,-2.627835430102321,94.13116076704311
1729569908017918,-0.039743014,0.006308563,-4.2527957,0.0017365003,-0.03234107,-0.27072346,0.03429543,-0.016934704,0.06752461,0.42996578754405185,-2.6327592075614517,94.13227333604453
1729569908025918,-0.0401551,0.0060165343,-4.253398,0.002019049,-0.0324566,-0.27022362,0.035318572,-0.014441087,0.062480565,0.4239679773116407,-2.637646680613445,94.13337983310656
1729569908041918,-0.04093941,0.0054266923,-4.254742,0.002631554,-0.032687638,-0.26924637,0.03828156,-0.014439923,0.061077993,0.4138414404368119,-2.647171261438887,94.13587295376104
1729569908049918,-0.041312,0.0051290337,-4.2554812,0.0029472508,-0.032788545,-0.26876876,0.039462116,-0.012613366,0.0597015,0.4095812994064,-2.6518117861129546,94.13721866077702
1729569908057918,-0.041653786,0.0048415135,-4.2562633,0.0033004864,-0.032854743,-0.26828796,0.04415444,-0.008274801,0.060100105,0.40585375144180863,-2.656202330778759,94.13872780425562
1729569908065918,-0.041801397,0.0039401148,-4.256079,0.003802384,-0.033138946,-0.26763877,0.062737204,-0.0355253,0.08114799,0.40236987660447565,-2.660281782121507,94.1396053485935
1729569908081918,-0.042068876,0.0021751006,-4.2559094,0.0048014303,-0.033663988,-0.26633725,0.062440388,-0.03281515,0.08134543,0.39612569977794726,-2.6677291874187943,94.14265333698337
1729569908089918,-0.042188924,0.0013109671,-4.2559175,0.005298768,-0.03391029,-0.2657099,0.062167235,-0.03078766,0.07841736,0.39325682430008796,-2.6714185051979387,94.14439290783268
1729569908097918,-0.04230003,0.00045862788,-4.255987,0.0057897414,-0.034144018,-0.2651094,0.06137165,-0.029216053,0.0750646,0.39053003287045224,-2.675372365307272,94.1461342189978
1729569908105918,-0.04240224,-0.00038213015,-4.2561164,0.006299179,-0.03435769,-0.26456827,0.0636797,-0.026708933,0.067640096,0.3879295965326379,-2.679662993167322,94.14797932171422
1729569908121918,-0.04258563,-0.0020084165,-4.256549,0.0073123137,-0.03473854,-0.2635627,0.06332091,-0.023803206,0.06284751,0.3837340352944464,-2.689399868229918,94.15191320868492
1729569908129918,-0.04266697,-0.0027946148,-4.2568493,0.007817426,-0.03489538,-0.26308694,0.063139014,-0.019604806,0.05947053,0.38211955356164046,-2.6948986899238627,94.1524735084695
1729569908137918,-0.042739533,-0.0035703848,-4.2572036,0.008338092,-0.035020314,-0.26262712,0.065083265,-0.015616882,0.0574775,0.38098681936241025,-2.700699253635191,94.15310399236928
1729569908145918,-0.042803433,-0.0043359483,-4.2576056,0.008833432,-0.03515142,-0.26222435,0.061917465,-0.016388018,0.050347295,0.38035709946264906,-2.7068861817461998,94.15369430620515
1729569908161918,-0.042905834,-0.0058372966,-4.258565,0.00983267,-0.035344288,-0.26155356,0.062452395,-0.01205434,0.041924413,0.3800488857886761,-2.719509715765115,94.15518407774628
1729569908169918,-0.04294453,-0.0065733213,-4.259119,0.010332008,-0.035423066,-0.26126724,0.062417235,-0.009847338,0.035788864,0.38008669563098035,-2.7259168358746924,94.15591229690962
1729569908177918,-0.042974927,-0.007299784,-4.2597218,0.010835503,-0.03547898,-0.2610139,0.06293692,-0.00698911,0.031668693,0.380435992253949,-2.7324201489556987,94.15656550404921
1729569908185918,-0.04276556,-0.008037725,-4.259455,0.011380741,-0.03555747,-0.26050887,0.06815477,-0.009811482,0.06312877,0.3809094036901903,-2.739088464041971,94.15728840546844
1729569908201918,-0.04227585,-0.009479985,-4.2591248,0.01252394,-0.03563599,-0.25948757,0.0714499,-0.004907371,0.06383099,0.38214818061285255,-2.753435959512023,94.15733115787037
1729569908209918,-0.042028237,-0.010187219,-4.259055,0.013085492,-0.035646316,-0.25898513,0.07019401,-0.001290813,0.06280467,0.38320093652431536,-2.761040573934979,94.15680301787162
1729569908217918,-0.041778732,-0.010885266,-4.259048,0.013642451,-0.035631973,-0.25851855,0.06961985,0.0017927958,0.05832314,0.3845475269150162,-2.7685888221233483,94.15630091269064
1729569908225918,-0.041527186,-0.011574215,-4.259102,0.014217035,-0.035603918,-0.25809628,0.07182301,0.003506895,0.052783635,0.3861819362290329,-2.7762501626400966,94.15599857030533
1729569908241918,-0.04101778,-0.012924847,-4.2593875,0.015316555,-0.035486266,-0.2573901,0.06872002,0.007353257,0.044135373,0.39067148373698407,-2.7918901192419256,94.15520389570311
1729569908249918,-0.040759947,-0.0135866,-4.2596164,0.015873197,-0.03539694,-0.25710422,0.06958027,0.011165625,0.03573671,0.3935584667447263,-2.800083720555283,94.15486259985236
1729569908257918,-0.040499948,-0.014239383,-4.2599015,0.016419895,-0.035300013,-0.25683695,0.06833719,0.01211604,0.033408403,0.39707839501503406,-2.808332513792157,94.15439171104147
1729569908265918,-0.04024012,-0.014865978,-4.2602363,0.016971124,-0.035163503,-0.2566314,0.06890366,0.017063692,0.025693325,0.4010018793227903,-2.8165770912528605,94.15398195221654
1729569908281918,-0.039713725,-0.01609321,-4.261065,0.018031048,-0.034872368,-0.25629553,0.066245206,0.018195948,0.020992009,0.4103576662817359,-2.8323554264414676,94.15153578597474
1729569908289918,-0.03944709,-0.016694155,-4.2615557,0.018555751,-0.03471534,-0.25616226,0.06558792,0.019628553,0.016659498,0.41575036706653357,-2.83991567433929,94.15034982035678
1729569908297918,-0.039178245,-0.0172867,-4.2620964,0.019052725,-0.03453471,-0.25601783,0.062121775,0.022578517,0.018052757,0.4215177884602662,-2.8471787049466655,94.14925809186899
1729569908305918,-0.038907263,-0.017870769,-4.2626853,0.01954511,-0.034331754,-0.25587815,0.06154808,0.02536969,0.017460436,0.4274891851573414,-2.85423533888711,94.14811128904016
1729569908321918,-0.037783228,-0.018683478,-4.2621894,0.020773204,-0.033742357,-0.25527647,0.07675588,0.0368373,0.037604943,0.44004462013672857,-2.8681739211551647,94.14629707877198
1729569908329918,-0.037228692,-0.01908733,-4.262042,0.021350808,-0.03343884,-0.25497508,0.072200544,0.037939753,0.03767386,0.4464914402056492,-2.8750909164014877,94.14573248537451
1729569908337918,-0.036678143,-0.019486263,-4.2619605,0.02190826,-0.033139534,-0.2546696,0.069681555,0.03741309,0.038184226,0.45292610287098267,-2.8818196718161735,94.1455644887689
